Temperature (C) Pressure (bar) Density (l, mol/l) Volume (l, l/mol) Internal Energy (l, kJ/kg) Enthalpy (l, kJ/kg) Entropy (l, J/g*K) Cv (l, J/g*K) Cp (l, J/g*K) Sound Spd. (l, m/s) Joule-Thomson (l, K/bar) Viscosity (l, uPa*s) Therm. Cond. (l, W/m*K) Surf. Tension (l, N/m) Density (v, mol/l) Volume (v, l/mol) Internal Energy (v, kJ/kg) Enthalpy (v, kJ/kg) Entropy (v, J/g*K) Cv (v, J/g*K) Cp (v, J/g*K) Sound Spd. (v, m/s) Joule-Thomson (v, K/bar) Viscosity (v, uPa*s) Therm. Cond. (v, W/m*K) 
130.00 2.7028 51.891 0.019271 546.09 546.38 1.6346 3.6170 4.2615 1504.3 -0.015869 212.90 0.68370 0.052932 0.083096 12.034 2539.5 2720.1 7.0264 1.6562 2.2389 485.97 4.7601 13.301 0.028765 130.10 2.7109 51.886 0.019273 546.52 546.81 1.6357 3.6166 4.2617 1504.1 -0.015862 212.72 0.68370 0.052912 0.083329 12.001 2539.6 2720.2 7.0254 1.6566 2.2395 486.01 4.7552 13.305 0.028778 130.20 2.7190 51.882 0.019275 546.95 547.24 1.6368 3.6161 4.2619 1503.9 -0.015855 212.54 0.68370 0.052891 0.083563 11.967 2539.7 2720.4 7.0244 1.6570 2.2402 486.05 4.7503 13.308 0.028791 130.30 2.7271 51.877 0.019276 547.37 547.66 1.6378 3.6156 4.2621 1503.8 -0.015848 212.37 0.68370 0.052870 0.083797 11.934 2539.8 2720.5 7.0234 1.6575 2.2409 486.09 4.7455 13.312 0.028805 130.40 2.7353 51.872 0.019278 547.80 548.09 1.6389 3.6151 4.2623 1503.6 -0.015841 212.19 0.68370 0.052850 0.084032 11.900 2539.9 2720.6 7.0224 1.6579 2.2415 486.13 4.7406 13.315 0.028818 130.50 2.7435 51.868 0.019280 548.22 548.52 1.6399 3.6146 4.2625 1503.4 -0.015834 212.02 0.68370 0.052829 0.084267 11.867 2540.1 2720.8 7.0214 1.6583 2.2422 486.17 4.7357 13.319 0.028832 130.60 2.7517 51.863 0.019282 548.65 548.94 1.6410 3.6141 4.2627 1503.3 -0.015826 211.84 0.68370 0.052809 0.084503 11.834 2540.2 2720.9 7.0205 1.6587 2.2429 486.21 4.7309 13.322 0.028845 130.70 2.7599 51.858 0.019283 549.08 549.37 1.6420 3.6137 4.2629 1503.1 -0.015819 211.67 0.68370 0.052788 0.084740 11.801 2540.3 2721.0 7.0195 1.6591 2.2436 486.25 4.7260 13.325 0.028858 130.80 2.7681 51.853 0.019285 549.50 549.80 1.6431 3.6132 4.2631 1502.9 -0.015812 211.49 0.68370 0.052767 0.084977 11.768 2540.4 2721.2 7.0185 1.6595 2.2442 486.29 4.7212 13.329 0.028872 130.90 2.7764 51.849 0.019287 549.93 550.22 1.6441 3.6127 4.2633 1502.8 -0.015805 211.32 0.68370 0.052747 0.085214 11.735 2540.5 2721.3 7.0175 1.6599 2.2449 486.33 4.7163 13.332 0.028885 131.00 2.7846 51.844 0.019289 550.35 550.65 1.6452 3.6122 4.2635 1502.6 -0.015798 211.14 0.68370 0.052726 0.085452 11.702 2540.6 2721.5 7.0165 1.6604 2.2456 486.37 4.7115 13.336 0.028899 131.10 2.7929 51.839 0.019290 550.78 551.08 1.6463 3.6117 4.2637 1502.4 -0.015790 210.97 0.68370 0.052706 0.085691 11.670 2540.7 2721.6 7.0155 1.6608 2.2463 486.41 4.7067 13.339 0.028912 131.20 2.8012 51.835 0.019292 551.21 551.51 1.6473 3.6112 4.2639 1502.2 -0.015783 210.80 0.68370 0.052685 0.085930 11.637 2540.8 2721.7 7.0145 1.6612 2.2470 486.45 4.7019 13.343 0.028926 131.30 2.8096 51.830 0.019294 551.63 551.93 1.6484 3.6108 4.2641 1502.1 -0.015776 210.62 0.68370 0.052664 0.086169 11.605 2540.9 2721.9 7.0135 1.6616 2.2476 486.49 4.6970 13.346 0.028939 131.40 2.8179 51.825 0.019296 552.06 552.36 1.6494 3.6103 4.2643 1501.9 -0.015769 210.45 0.68370 0.052644 0.086409 11.573 2541.0 2722.0 7.0125 1.6620 2.2483 486.53 4.6922 13.350 0.028953 131.50 2.8263 51.820 0.019297 552.48 552.79 1.6505 3.6098 4.2645 1501.7 -0.015761 210.28 0.68370 0.052623 0.086650 11.541 2541.1 2722.1 7.0115 1.6625 2.2490 486.57 4.6874 13.353 0.028966 131.60 2.8347 51.816 0.019299 552.91 553.21 1.6515 3.6093 4.2647 1501.5 -0.015754 210.11 0.68369 0.052603 0.086891 11.509 2541.2 2722.3 7.0105 1.6629 2.2497 486.61 4.6827 13.356 0.028980 131.70 2.8431 51.811 0.019301 553.34 553.64 1.6526 3.6088 4.2649 1501.4 -0.015747 209.93 0.68369 0.052582 0.087133 11.477 2541.3 2722.4 7.0095 1.6633 2.2504 486.65 4.6779 13.360 0.028993 131.80 2.8515 51.806 0.019303 553.76 554.07 1.6536 3.6083 4.2651 1501.2 -0.015740 209.76 0.68369 0.052561 0.087375 11.445 2541.4 2722.5 7.0086 1.6637 2.2511 486.69 4.6731 13.363 0.029007 131.90 2.8600 51.801 0.019305 554.19 554.49 1.6547 3.6079 4.2653 1501.0 -0.015732 209.59 0.68369 0.052541 0.087618 11.413 2541.5 2722.7 7.0076 1.6641 2.2517 486.73 4.6683 13.367 0.029020 132.00 2.8685 51.797 0.019306 554.61 554.92 1.6557 3.6074 4.2655 1500.9 -0.015725 209.42 0.68369 0.052520 0.087862 11.382 2541.6 2722.8 7.0066 1.6646 2.2524 486.77 4.6636 13.370 0.029034 132.10 2.8770 51.792 0.019308 555.04 555.35 1.6568 3.6069 4.2657 1500.7 -0.015718 209.25 0.68369 0.052499 0.088105 11.350 2541.7 2723.0 7.0056 1.6650 2.2531 486.81 4.6588 13.374 0.029047 132.20 2.8855 51.787 0.019310 555.47 555.78 1.6578 3.6064 4.2659 1500.5 -0.015711 209.08 0.68369 0.052479 0.088350 11.319 2541.8 2723.1 7.0046 1.6654 2.2538 486.85 4.6541 13.377 0.029061 132.30 2.8940 51.782 0.019312 555.89 556.20 1.6589 3.6059 4.2661 1500.3 -0.015703 208.91 0.68369 0.052458 0.088595 11.287 2541.9 2723.2 7.0036 1.6658 2.2545 486.89 4.6493 13.381 0.029074 132.40 2.9026 51.777 0.019313 556.32 556.63 1.6599 3.6055 4.2663 1500.2 -0.015696 208.74 0.68368 0.052437 0.088841 11.256 2542.0 2723.4 7.0026 1.6663 2.2552 486.93 4.6446 13.384 0.029088 132.50 2.9111 51.773 0.019315 556.75 557.06 1.6610 3.6050 4.2665 1500.0 -0.015689 208.57 0.68368 0.052417 0.089087 11.225 2542.1 2723.5 7.0017 1.6667 2.2559 486.97 4.6399 13.388 0.029101 132.60 2.9197 51.768 0.019317 557.17 557.48 1.6620 3.6045 4.2667 1499.8 -0.015681 208.40 0.68368 0.052396 0.089333 11.194 2542.2 2723.6 7.0007 1.6671 2.2566 487.01 4.6351 13.391 0.029115 132.70 2.9283 51.763 0.019319 557.60 557.91 1.6631 3.6040 4.2669 1499.6 -0.015674 208.23 0.68368 0.052375 0.089581 11.163 2542.3 2723.8 6.9997 1.6676 2.2573 487.04 4.6304 13.394 0.029128 132.80 2.9370 51.758 0.019321 558.02 558.34 1.6641 3.6035 4.2671 1499.5 -0.015667 208.06 0.68368 0.052355 0.089828 11.132 2542.4 2723.9 6.9987 1.6680 2.2580 487.08 4.6257 13.398 0.029142 132.90 2.9456 51.754 0.019322 558.45 558.77 1.6652 3.6031 4.2673 1499.3 -0.015660 207.89 0.68367 0.052334 0.090077 11.102 2542.5 2724.0 6.9977 1.6684 2.2587 487.12 4.6210 13.401 0.029156 133.00 2.9543 51.749 0.019324 558.88 559.19 1.6662 3.6026 4.2675 1499.1 -0.015652 207.72 0.68367 0.052313 0.090325 11.071 2542.6 2724.2 6.9967 1.6688 2.2594 487.16 4.6163 13.405 0.029169 133.10 2.9630 51.744 0.019326 559.30 559.62 1.6673 3.6021 4.2677 1498.9 -0.015645 207.55 0.68367 0.052293 0.090575 11.041 2542.7 2724.3 6.9958 1.6693 2.2601 487.20 4.6116 13.408 0.029183 133.20 2.9717 51.739 0.019328 559.73 560.05 1.6683 3.6016 4.2679 1498.8 -0.015638 207.39 0.68367 0.052272 0.090825 11.010 2542.8 2724.4 6.9948 1.6697 2.2608 487.24 4.6070 13.412 0.029196 133.30 2.9805 51.734 0.019329 560.16 560.48 1.6694 3.6011 4.2681 1498.6 -0.015630 207.22 0.68366 0.052251 0.091075 10.980 2542.9 2724.6 6.9938 1.6701 2.2615 487.28 4.6023 13.415 0.029210 133.40 2.9892 51.730 0.019331 560.58 560.90 1.6704 3.6007 4.2683 1498.4 -0.015623 207.05 0.68366 0.052231 0.091326 10.950 2543.0 2724.7 6.9928 1.6706 2.2622 487.32 4.5976 13.419 0.029224 133.50 2.9980 51.725 0.019333 561.01 561.33 1.6715 3.6002 4.2685 1498.2 -0.015616 206.88 0.68366 0.052210 0.091578 10.920 2543.1 2724.9 6.9918 1.6710 2.2629 487.36 4.5930 13.422 0.029237 133.60 3.0068 51.720 0.019335 561.44 561.76 1.6725 3.5997 4.2687 1498.1 -0.015608 206.72 0.68366 0.052189 0.091830 10.890 2543.2 2725.0 6.9909 1.6714 2.2636 487.40 4.5883 13.426 0.029251 133.70 3.0157 51.715 0.019337 561.86 562.19 1.6736 3.5992 4.2689 1497.9 -0.015601 206.55 0.68365 0.052169 0.092083 10.860 2543.3 2725.1 6.9899 1.6719 2.2643 487.44 4.5837 13.429 0.029265 133.80 3.0245 51.710 0.019338 562.29 562.61 1.6746 3.5987 4.2691 1497.7 -0.015593 206.38 0.68365 0.052148 0.092336 10.830 2543.4 2725.3 6.9889 1.6723 2.2650 487.48 4.5790 13.432 0.029278 133.90 3.0334 51.706 0.019340 562.72 563.04 1.6757 3.5983 4.2693 1497.5 -0.015586 206.22 0.68365 0.052127 0.092590 10.800 2543.5 2725.4 6.9879 1.6727 2.2657 487.52 4.5744 13.436 0.029292 134.00 3.0423 51.701 0.019342 563.14 563.47 1.6767 3.5978 4.2695 1497.3 -0.015579 206.05 0.68364 0.052106 0.092845 10.771 2543.6 2725.5 6.9869 1.6732 2.2664 487.55 4.5698 13.439 0.029306 134.10 3.0512 51.696 0.019344 563.57 563.90 1.6778 3.5973 4.2697 1497.2 -0.015571 205.88 0.68364 0.052086 0.093099 10.741 2543.7 2725.7 6.9860 1.6736 2.2671 487.59 4.5651 13.443 0.029319 134.20 3.0601 51.691 0.019346 563.99 564.32 1.6788 3.5968 4.2700 1497.0 -0.015564 205.72 0.68364 0.052065 0.093355 10.712 2543.8 2725.8 6.9850 1.6740 2.2678 487.63 4.5605 13.446 0.029333 134.30 3.0690 51.686 0.019347 564.42 564.75 1.6799 3.5963 4.2702 1496.8 -0.015557 205.55 0.68364 0.052044 0.093611 10.682 2543.9 2725.9 6.9840 1.6745 2.2686 487.67 4.5559 13.450 0.029347 134.40 3.0780 51.682 0.019349 564.85 565.18 1.6809 3.5959 4.2704 1496.6 -0.015549 205.39 0.68363 0.052023 0.093868 10.653 2544.0 2726.1 6.9830 1.6749 2.2693 487.71 4.5513 13.453 0.029360 134.50 3.0870 51.677 0.019351 565.27 565.61 1.6820 3.5954 4.2706 1496.4 -0.015542 205.22 0.68363 0.052003 0.094125 10.624 2544.1 2726.2 6.9821 1.6753 2.2700 487.75 4.5467 13.457 0.029374 134.60 3.0960 51.672 0.019353 565.70 566.03 1.6830 3.5949 4.2708 1496.3 -0.015534 205.06 0.68362 0.051982 0.094383 10.595 2544.2 2726.3 6.9811 1.6758 2.2707 487.79 4.5421 13.460 0.029388 134.70 3.1051 51.667 0.019355 566.13 566.46 1.6841 3.5944 4.2710 1496.1 -0.015527 204.90 0.68362 0.051961 0.094641 10.566 2544.3 2726.5 6.9801 1.6762 2.2714 487.83 4.5375 13.464 0.029401 134.80 3.1141 51.662 0.019356 566.55 566.89 1.6851 3.5940 4.2712 1495.9 -0.015520 204.73 0.68362 0.051940 0.094900 10.537 2544.4 2726.6 6.9792 1.6766 2.2721 487.86 4.5330 13.467 0.029415 134.90 3.1232 51.658 0.019358 566.98 567.32 1.6861 3.5935 4.2714 1495.7 -0.015512 204.57 0.68361 0.051920 0.095160 10.509 2544.6 2726.7 6.9782 1.6771 2.2729 487.90 4.5284 13.470 0.029429 135.00 3.1323 51.653 0.019360 567.41 567.74 1.6872 3.5930 4.2716 1495.5 -0.015505 204.40 0.68361 0.051899 0.095420 10.480 2544.7 2726.9 6.9772 1.6775 2.2736 487.94 4.5238 13.474 0.029443 135.10 3.1414 51.648 0.019362 567.84 568.17 1.6882 3.5925 4.2718 1495.4 -0.015497 204.24 0.68361 0.051878 0.095680 10.451 2544.8 2727.0 6.9762 1.6780 2.2743 487.98 4.5193 13.477 0.029456 135.20 3.1506 51.643 0.019364 568.26 568.60 1.6893 3.5921 4.2721 1495.2 -0.015490 204.08 0.68360 0.051857 0.095942 10.423 2544.9 2727.1 6.9753 1.6784 2.2750 488.02 4.5147 13.481 0.029470 135.30 3.1597 51.638 0.019366 568.69 569.03 1.6903 3.5916 4.2723 1495.0 -0.015482 203.92 0.68360 0.051837 0.096203 10.395 2545.0 2727.3 6.9743 1.6788 2.2757 488.06 4.5102 13.484 0.029484 135.40 3.1689 51.633 0.019367 569.12 569.46 1.6914 3.5911 4.2725 1494.8 -0.015475 203.75 0.68359 0.051816 0.096466 10.366 2545.1 2727.4 6.9733 1.6793 2.2765 488.09 4.5056 13.488 0.029498 135.50 3.1781 51.629 0.019369 569.54 569.88 1.6924 3.5906 4.2727 1494.6 -0.015467 203.59 0.68359 0.051795 0.096729 10.338 2545.2 2727.5 6.9724 1.6797 2.2772 488.13 4.5011 13.491 0.029512 135.60 3.1873 51.624 0.019371 569.97 570.31 1.6935 3.5901 4.2729 1494.5 -0.015460 203.43 0.68358 0.051774 0.096992 10.310 2545.3 2727.7 6.9714 1.6802 2.2779 488.17 4.4966 13.495 0.029525 135.70 3.1966 51.619 0.019373 570.40 570.74 1.6945 3.5897 4.2731 1494.3 -0.015453 203.27 0.68358 0.051753 0.097256 10.282 2545.4 2727.8 6.9704 1.6806 2.2786 488.21 4.4921 13.498 0.029539 135.80 3.2059 51.614 0.019375 570.82 571.17 1.6956 3.5892 4.2733 1494.1 -0.015445 203.11 0.68357 0.051733 0.097521 10.254 2545.5 2727.9 6.9695 1.6811 2.2794 488.25 4.4875 13.502 0.029553 135.90 3.2152 51.609 0.019376 571.25 571.60 1.6966 3.5887 4.2735 1493.9 -0.015438 202.94 0.68357 0.051712 0.097786 10.226 2545.6 2728.1 6.9685 1.6815 2.2801 488.29 4.4830 13.505 0.029567 136.00 3.2245 51.604 0.019378 571.68 572.02 1.6976 3.5882 4.2738 1493.7 -0.015430 202.78 0.68356 0.051691 0.098052 10.199 2545.7 2728.2 6.9675 1.6820 2.2808 488.32 4.4785 13.508 0.029581 136.10 3.2338 51.599 0.019380 572.10 572.45 1.6987 3.5878 4.2740 1493.5 -0.015423 202.62 0.68356 0.051670 0.098318 10.171 2545.8 2728.3 6.9666 1.6824 2.2816 488.36 4.4740 13.512 0.029595 136.20 3.2432 51.595 0.019382 572.53 572.88 1.6997 3.5873 4.2742 1493.4 -0.015415 202.46 0.68355 0.051649 0.098585 10.143 2545.9 2728.5 6.9656 1.6828 2.2823 488.40 4.4695 13.515 0.029608 136.30 3.2526 51.590 0.019384 572.96 573.31 1.7008 3.5868 4.2744 1493.2 -0.015408 202.30 0.68355 0.051629 0.098853 10.116 2546.0 2728.6 6.9646 1.6833 2.2830 488.44 4.4651 13.519 0.029622 136.40 3.2620 51.585 0.019386 573.38 573.74 1.7018 3.5863 4.2746 1493.0 -0.015400 202.14 0.68354 0.051608 0.099121 10.089 2546.1 2728.7 6.9637 1.6837 2.2838 488.48 4.4606 13.522 0.029636 136.50 3.2714 51.580 0.019387 573.81 574.16 1.7029 3.5859 4.2748 1492.8 -0.015393 201.98 0.68354 0.051587 0.099390 10.061 2546.2 2728.9 6.9627 1.6842 2.2845 488.51 4.4561 13.526 0.029650 136.60 3.2808 51.575 0.019389 574.24 574.59 1.7039 3.5854 4.2750 1492.6 -0.015385 201.82 0.68353 0.051566 0.099659 10.034 2546.3 2729.0 6.9617 1.6846 2.2852 488.55 4.4516 13.529 0.029664 136.70 3.2903 51.570 0.019391 574.67 575.02 1.7049 3.5849 4.2753 1492.4 -0.015377 201.66 0.68353 0.051545 0.099929 10.007 2546.4 2729.1 6.9608 1.6851 2.2860 488.59 4.4472 13.533 0.029678 136.80 3.2998 51.565 0.019393 575.09 575.45 1.7060 3.5844 4.2755 1492.3 -0.015370 201.50 0.68352 0.051525 0.10020 9.9801 2546.5 2729.3 6.9598 1.6855 2.2867 488.63 4.4427 13.536 0.029692 136.90 3.3093 51.561 0.019395 575.52 575.88 1.7070 3.5840 4.2757 1492.1 -0.015362 201.35 0.68352 0.051504 0.10047 9.9531 2546.6 2729.4 6.9589 1.6860 2.2875 488.67 4.4383 13.540 0.029706 137.00 3.3188 51.556 0.019397 575.95 576.30 1.7081 3.5835 4.2759 1491.9 -0.015355 201.19 0.68351 0.051483 0.10074 9.9263 2546.7 2729.5 6.9579 1.6864 2.2882 488.70 4.4338 13.543 0.029719 137.10 3.3284 51.551 0.019398 576.37 576.73 1.7091 3.5830 4.2761 1491.7 -0.015347 201.03 0.68351 0.051462 0.10101 9.8996 2546.8 2729.7 6.9569 1.6869 2.2889 488.74 4.4294 13.546 0.029733 137.20 3.3380 51.546 0.019400 576.80 577.16 1.7101 3.5825 4.2763 1491.5 -0.015340 200.87 0.68350 0.051441 0.10129 9.8729 2546.9 2729.8 6.9560 1.6873 2.2897 488.78 4.4250 13.550 0.029747 137.30 3.3476 51.541 0.019402 577.23 577.59 1.7112 3.5821 4.2766 1491.3 -0.015332 200.71 0.68349 0.051420 0.10156 9.8463 2547.0 2729.9 6.9550 1.6878 2.2904 488.82 4.4206 13.553 0.029761 137.40 3.3572 51.536 0.019404 577.66 578.02 1.7122 3.5816 4.2768 1491.1 -0.015325 200.56 0.68349 0.051399 0.10184 9.8198 2547.1 2730.0 6.9541 1.6882 2.2912 488.85 4.4161 13.557 0.029775 137.50 3.3669 51.531 0.019406 578.08 578.45 1.7133 3.5811 4.2770 1491.0 -0.015317 200.40 0.68348 0.051379 0.10211 9.7934 2547.2 2730.2 6.9531 1.6887 2.2919 488.89 4.4117 13.560 0.029789 137.60 3.3765 51.526 0.019408 578.51 578.87 1.7143 3.5807 4.2772 1490.8 -0.015309 200.24 0.68348 0.051358 0.10238 9.7671 2547.3 2730.3 6.9521 1.6892 2.2927 488.93 4.4073 13.564 0.029803 137.70 3.3862 51.521 0.019409 578.94 579.30 1.7153 3.5802 4.2774 1490.6 -0.015302 200.08 0.68347 0.051337 0.10266 9.7408 2547.4 2730.4 6.9512 1.6896 2.2934 488.97 4.4029 13.567 0.029817 137.80 3.3959 51.517 0.019411 579.37 579.73 1.7164 3.5797 4.2777 1490.4 -0.015294 199.93 0.68346 0.051316 0.10294 9.7147 2547.5 2730.6 6.9502 1.6901 2.2942 489.00 4.3985 13.571 0.029831 137.90 3.4057 51.512 0.019413 579.79 580.16 1.7174 3.5792 4.2779 1490.2 -0.015287 199.77 0.68346 0.051295 0.10321 9.6886 2547.6 2730.7 6.9493 1.6905 2.2949 489.04 4.3941 13.574 0.029845 138.00 3.4154 51.507 0.019415 580.22 580.59 1.7185 3.5788 4.2781 1490.0 -0.015279 199.62 0.68345 0.051274 0.10349 9.6626 2547.6 2730.8 6.9483 1.6910 2.2957 489.08 4.3898 13.578 0.029859 138.10 3.4252 51.502 0.019417 580.65 581.02 1.7195 3.5783 4.2783 1489.8 -0.015271 199.46 0.68344 0.051253 0.10377 9.6367 2547.7 2731.0 6.9474 1.6914 2.2964 489.12 4.3854 13.581 0.029873 138.20 3.4350 51.497 0.019419 581.07 581.44 1.7205 3.5778 4.2785 1489.6 -0.015264 199.30 0.68344 0.051232 0.10405 9.6109 2547.8 2731.1 6.9464 1.6919 2.2972 489.15 4.3810 13.584 0.029887 138.30 3.4448 51.492 0.019420 581.50 581.87 1.7216 3.5773 4.2788 1489.5 -0.015256 199.15 0.68343 0.051212 0.10433 9.5851 2547.9 2731.2 6.9454 1.6924 2.2979 489.19 4.3767 13.588 0.029901 138.40 3.4547 51.487 0.019422 581.93 582.30 1.7226 3.5769 4.2790 1489.3 -0.015249 198.99 0.68342 0.051191 0.10461 9.5595 2548.0 2731.4 6.9445 1.6928 2.2987 489.23 4.3723 13.591 0.029915 138.50 3.4646 51.482 0.019424 582.36 582.73 1.7237 3.5764 4.2792 1489.1 -0.015241 198.84 0.68342 0.051170 0.10489 9.5339 2548.1 2731.5 6.9435 1.6933 2.2994 489.26 4.3679 13.595 0.029929 138.60 3.4745 51.477 0.019426 582.78 583.16 1.7247 3.5759 4.2794 1488.9 -0.015233 198.68 0.68341 0.051149 0.10517 9.5084 2548.2 2731.6 6.9426 1.6937 2.3002 489.30 4.3636 13.598 0.029943 138.70 3.4844 51.472 0.019428 583.21 583.59 1.7257 3.5755 4.2797 1488.7 -0.015226 198.53 0.68340 0.051128 0.10545 9.4830 2548.3 2731.8 6.9416 1.6942 2.3010 489.34 4.3593 13.602 0.029957 138.80 3.4943 51.468 0.019430 583.64 584.02 1.7268 3.5750 4.2799 1488.5 -0.015218 198.37 0.68339 0.051107 0.10573 9.4577 2548.4 2731.9 6.9407 1.6946 2.3017 489.38 4.3549 13.605 0.029971 138.90 3.5043 51.463 0.019432 584.07 584.45 1.7278 3.5745 4.2801 1488.3 -0.015210 198.22 0.68339 0.051086 0.10602 9.4324 2548.5 2732.0 6.9397 1.6951 2.3025 489.41 4.3506 13.609 0.029985 139.00 3.5143 51.458 0.019433 584.49 584.87 1.7289 3.5740 4.2803 1488.1 -0.015203 198.07 0.68338 0.051065 0.10630 9.4073 2548.6 2732.1 6.9388 1.6956 2.3033 489.45 4.3463 13.612 0.029999 139.10 3.5243 51.453 0.019435 584.92 585.30 1.7299 3.5736 4.2805 1487.9 -0.015195 197.91 0.68337 0.051044 0.10659 9.3822 2548.7 2732.3 6.9378 1.6960 2.3040 489.49 4.3420 13.616 0.030013 139.20 3.5343 51.448 0.019437 585.35 585.73 1.7309 3.5731 4.2808 1487.8 -0.015187 197.76 0.68336 0.051023 0.10687 9.3572 2548.8 2732.4 6.9369 1.6965 2.3048 489.52 4.3376 13.619 0.030027 139.30 3.5444 51.443 0.019439 585.78 586.16 1.7320 3.5726 4.2810 1487.6 -0.015180 197.61 0.68336 0.051002 0.10716 9.3322 2548.9 2732.5 6.9359 1.6970 2.3055 489.56 4.3333 13.622 0.030042 139.40 3.5544 51.438 0.019441 586.21 586.59 1.7330 3.5722 4.2812 1487.4 -0.015172 197.45 0.68335 0.050982 0.10744 9.3074 2549.0 2732.7 6.9350 1.6974 2.3063 489.60 4.3290 13.626 0.030056 139.50 3.5645 51.433 0.019443 586.63 587.02 1.7340 3.5717 4.2814 1487.2 -0.015164 197.30 0.68334 0.050961 0.10773 9.2826 2549.1 2732.8 6.9340 1.6979 2.3071 489.63 4.3247 13.629 0.030070 139.60 3.5747 51.428 0.019445 587.06 587.45 1.7351 3.5712 4.2817 1487.0 -0.015157 197.15 0.68333 0.050940 0.10802 9.2579 2549.2 2732.9 6.9331 1.6984 2.3079 489.67 4.3204 13.633 0.030084 139.70 3.5848 51.423 0.019446 587.49 587.88 1.7361 3.5708 4.2819 1486.8 -0.015149 197.00 0.68332 0.050919 0.10830 9.2333 2549.3 2733.1 6.9321 1.6988 2.3086 489.71 4.3162 13.636 0.030098 139.80 3.5950 51.418 0.019448 587.92 588.30 1.7371 3.5703 4.2821 1486.6 -0.015141 196.84 0.68332 0.050898 0.10859 9.2088 2549.4 2733.2 6.9312 1.6993 2.3094 489.74 4.3119 13.640 0.030112 139.90 3.6052 51.413 0.019450 588.34 588.73 1.7382 3.5698 4.2824 1486.4 -0.015133 196.69 0.68331 0.050877 0.10888 9.1843 2549.5 2733.3 6.9302 1.6998 2.3102 489.78 4.3076 13.643 0.030126 140.00 3.6154 51.408 0.019452 588.77 589.16 1.7392 3.5694 4.2826 1486.2 -0.015126 196.54 0.68330 0.050856 0.10917 9.1599 2549.6 2733.4 6.9293 1.7002 2.3109 489.82 4.3033 13.647 0.030140 140.10 3.6256 51.403 0.019454 589.20 589.59 1.7403 3.5689 4.2828 1486.0 -0.015118 196.39 0.68329 0.050835 0.10946 9.1356 2549.7 2733.6 6.9284 1.7007 2.3117 489.85 4.2991 13.650 0.030155 140.20 3.6359 51.398 0.019456 589.63 590.02 1.7413 3.5684 4.2830 1485.8 -0.015110 196.24 0.68328 0.050814 0.10975 9.1114 2549.8 2733.7 6.9274 1.7012 2.3125 489.89 4.2948 13.654 0.030169 140.30 3.6462 51.393 0.019458 590.05 590.45 1.7423 3.5679 4.2833 1485.6 -0.015102 196.09 0.68327 0.050793 0.11004 9.0873 2549.9 2733.8 6.9265 1.7016 2.3133 489.93 4.2906 13.657 0.030183 140.40 3.6565 51.388 0.019460 590.48 590.88 1.7434 3.5675 4.2835 1485.4 -0.015095 195.94 0.68327 0.050772 0.11034 9.0632 2550.0 2734.0 6.9255 1.7021 2.3140 489.96 4.2863 13.660 0.030197 140.50 3.6668 51.384 0.019461 590.91 591.31 1.7444 3.5670 4.2837 1485.3 -0.015087 195.79 0.68326 0.050751 0.11063 9.0392 2550.1 2734.1 6.9246 1.7026 2.3148 490.00 4.2821 13.664 0.030211 140.60 3.6772 51.379 0.019463 591.34 591.74 1.7454 3.5665 4.2840 1485.1 -0.015079 195.64 0.68325 0.050730 0.11092 9.0153 2550.2 2734.2 6.9236 1.7030 2.3156 490.04 4.2779 13.667 0.030225 140.70 3.6876 51.374 0.019465 591.77 592.16 1.7465 3.5661 4.2842 1484.9 -0.015071 195.49 0.68324 0.050709 0.11122 8.9914 2550.3 2734.3 6.9227 1.7035 2.3164 490.07 4.2736 13.671 0.030240 140.80 3.6980 51.369 0.019467 592.19 592.59 1.7475 3.5656 4.2844 1484.7 -0.015064 195.34 0.68323 0.050688 0.11151 8.9677 2550.4 2734.5 6.9217 1.7040 2.3172 490.11 4.2694 13.674 0.030254 140.90 3.7084 51.364 0.019469 592.62 593.02 1.7485 3.5651 4.2846 1484.5 -0.015056 195.19 0.68322 0.050667 0.11181 8.9440 2550.5 2734.6 6.9208 1.7045 2.3180 490.14 4.2652 13.678 0.030268 141.00 3.7189 51.359 0.019471 593.05 593.45 1.7496 3.5647 4.2849 1484.3 -0.015048 195.04 0.68321 0.050646 0.11210 8.9204 2550.6 2734.7 6.9199 1.7049 2.3187 490.18 4.2610 13.681 0.030282 141.10 3.7293 51.354 0.019473 593.48 593.88 1.7506 3.5642 4.2851 1484.1 -0.015040 194.89 0.68320 0.050625 0.11240 8.8968 2550.7 2734.9 6.9189 1.7054 2.3195 490.22 4.2568 13.685 0.030297 141.20 3.7398 51.349 0.019475 593.91 594.31 1.7516 3.5637 4.2853 1483.9 -0.015033 194.74 0.68319 0.050604 0.11270 8.8734 2550.8 2735.0 6.9180 1.7059 2.3203 490.25 4.2526 13.688 0.030311 141.30 3.7504 51.344 0.019477 594.33 594.74 1.7527 3.5633 4.2856 1483.7 -0.015025 194.59 0.68318 0.050583 0.11299 8.8500 2550.9 2735.1 6.9170 1.7063 2.3211 490.29 4.2484 13.692 0.030325 141.40 3.7609 51.339 0.019478 594.76 595.17 1.7537 3.5628 4.2858 1483.5 -0.015017 194.44 0.68317 0.050562 0.11329 8.8267 2551.0 2735.2 6.9161 1.7068 2.3219 490.32 4.2442 13.695 0.030339 141.50 3.7715 51.334 0.019480 595.19 595.60 1.7547 3.5623 4.2860 1483.3 -0.015009 194.30 0.68317 0.050541 0.11359 8.8034 2551.1 2735.4 6.9152 1.7073 2.3227 490.36 4.2400 13.698 0.030354 141.60 3.7821 51.329 0.019482 595.62 596.03 1.7558 3.5619 4.2863 1483.1 -0.015001 194.15 0.68316 0.050520 0.11389 8.7802 2551.2 2735.5 6.9142 1.7078 2.3235 490.40 4.2358 13.702 0.030368 141.70 3.7927 51.324 0.019484 596.05 596.46 1.7568 3.5614 4.2865 1482.9 -0.014993 194.00 0.68315 0.050499 0.11419 8.7571 2551.3 2735.6 6.9133 1.7083 2.3243 490.43 4.2317 13.705 0.030382 141.80 3.8033 51.319 0.019486 596.47 596.89 1.7578 3.5609 4.2867 1482.7 -0.014986 193.85 0.68314 0.050478 0.11449 8.7341 2551.4 2735.8 6.9124 1.7087 2.3251 490.47 4.2275 13.709 0.030396 141.90 3.8140 51.314 0.019488 596.90 597.32 1.7589 3.5605 4.2870 1482.5 -0.014978 193.71 0.68313 0.050457 0.11480 8.7112 2551.5 2735.9 6.9114 1.7092 2.3258 490.50 4.2233 13.712 0.030411 142.00 3.8247 51.309 0.019490 597.33 597.74 1.7599 3.5600 4.2872 1482.3 -0.014970 193.56 0.68312 0.050436 0.11510 8.6883 2551.6 2736.0 6.9105 1.7097 2.3266 490.54 4.2192 13.716 0.030425 142.10 3.8354 51.304 0.019492 597.76 598.17 1.7609 3.5595 4.2874 1482.1 -0.014962 193.41 0.68311 0.050415 0.11540 8.6655 2551.7 2736.1 6.9095 1.7102 2.3274 490.57 4.2150 13.719 0.030439 142.20 3.8462 51.299 0.019494 598.19 598.60 1.7620 3.5591 4.2877 1481.9 -0.014954 193.26 0.68310 0.050394 0.11570 8.6427 2551.8 2736.3 6.9086 1.7106 2.3282 490.61 4.2109 13.723 0.030454 142.30 3.8569 51.294 0.019495 598.62 599.03 1.7630 3.5586 4.2879 1481.7 -0.014946 193.12 0.68309 0.050373 0.11601 8.6201 2551.8 2736.4 6.9077 1.7111 2.3290 490.65 4.2067 13.726 0.030468 142.40 3.8677 51.289 0.019497 599.04 599.46 1.7640 3.5581 4.2881 1481.5 -0.014938 192.97 0.68307 0.050352 0.11631 8.5975 2551.9 2736.5 6.9067 1.7116 2.3298 490.68 4.2026 13.730 0.030482 142.50 3.8785 51.284 0.019499 599.47 599.89 1.7650 3.5577 4.2884 1481.3 -0.014931 192.83 0.68306 0.050331 0.11662 8.5749 2552.0 2736.6 6.9058 1.7121 2.3306 490.72 4.1985 13.733 0.030497 142.60 3.8894 51.279 0.019501 599.90 600.32 1.7661 3.5572 4.2886 1481.1 -0.014923 192.68 0.68305 0.050310 0.11693 8.5525 2552.1 2736.8 6.9049 1.7126 2.3314 490.75 4.1943 13.736 0.030511 142.70 3.9002 51.274 0.019503 600.33 600.75 1.7671 3.5567 4.2888 1480.9 -0.014915 192.53 0.68304 0.050289 0.11723 8.5301 2552.2 2736.9 6.9039 1.7130 2.3322 490.79 4.1902 13.740 0.030525 142.80 3.9111 51.269 0.019505 600.76 601.18 1.7681 3.5563 4.2891 1480.7 -0.014907 192.39 0.68303 0.050268 0.11754 8.5078 2552.3 2737.0 6.9030 1.7135 2.3330 490.82 4.1861 13.743 0.030540 142.90 3.9220 51.264 0.019507 601.19 601.61 1.7692 3.5558 4.2893 1480.5 -0.014899 192.24 0.68302 0.050247 0.11785 8.4855 2552.4 2737.2 6.9021 1.7140 2.3339 490.86 4.1820 13.747 0.030554 143.00 3.9329 51.259 0.019509 601.61 602.04 1.7702 3.5553 4.2896 1480.3 -0.014891 192.10 0.68301 0.050225 0.11816 8.4634 2552.5 2737.3 6.9011 1.7145 2.3347 490.89 4.1779 13.750 0.030569 143.10 3.9439 51.254 0.019511 602.04 602.47 1.7712 3.5549 4.2898 1480.1 -0.014883 191.95 0.68300 0.050204 0.11847 8.4413 2552.6 2737.4 6.9002 1.7150 2.3355 490.93 4.1738 13.754 0.030583 143.20 3.9549 51.249 0.019513 602.47 602.90 1.7723 3.5544 4.2900 1479.9 -0.014875 191.81 0.68299 0.050183 0.11878 8.4192 2552.7 2737.5 6.8993 1.7155 2.3363 490.96 4.1697 13.757 0.030597 143.30 3.9659 51.244 0.019515 602.90 603.33 1.7733 3.5540 4.2903 1479.7 -0.014867 191.67 0.68298 0.050162 0.11909 8.3973 2552.8 2737.7 6.8984 1.7160 2.3371 491.00 4.1656 13.761 0.030612 143.40 3.9769 51.239 0.019516 603.33 603.76 1.7743 3.5535 4.2905 1479.5 -0.014859 191.52 0.68297 0.050141 0.11940 8.3754 2552.9 2737.8 6.8974 1.7164 2.3379 491.04 4.1615 13.764 0.030626 143.50 3.9880 51.234 0.019518 603.76 604.19 1.7753 3.5530 4.2907 1479.3 -0.014851 191.38 0.68296 0.050120 0.11971 8.3535 2553.0 2737.9 6.8965 1.7169 2.3387 491.07 4.1574 13.768 0.030641 143.60 3.9991 51.229 0.019520 604.19 604.62 1.7764 3.5526 4.2910 1479.1 -0.014843 191.23 0.68294 0.050099 0.12002 8.3318 2553.1 2738.0 6.8956 1.7174 2.3395 491.11 4.1534 13.771 0.030655 143.70 4.0102 51.224 0.019522 604.61 605.05 1.7774 3.5521 4.2912 1478.9 -0.014835 191.09 0.68293 0.050078 0.12034 8.3101 2553.2 2738.2 6.8946 1.7179 2.3403 491.14 4.1493 13.774 0.030669 143.80 4.0213 51.219 0.019524 605.04 605.48 1.7784 3.5516 4.2915 1478.7 -0.014827 190.95 0.68292 0.050057 0.12065 8.2884 2553.3 2738.3 6.8937 1.7184 2.3411 491.18 4.1452 13.778 0.030684 143.90 4.0325 51.214 0.019526 605.47 605.91 1.7795 3.5512 4.2917 1478.5 -0.014819 190.80 0.68291 0.050036 0.12096 8.2669 2553.4 2738.4 6.8928 1.7189 2.3420 491.21 4.1412 13.781 0.030698 144.00 4.0437 51.209 0.019528 605.90 606.34 1.7805 3.5507 4.2920 1478.3 -0.014811 190.66 0.68290 0.050015 0.12128 8.2454 2553.5 2738.5 6.8919 1.7194 2.3428 491.25 4.1371 13.785 0.030713 144.10 4.0549 51.203 0.019530 606.33 606.77 1.7815 3.5502 4.2922 1478.1 -0.014803 190.52 0.68289 0.049993 0.12160 8.2240 2553.6 2738.7 6.8909 1.7199 2.3436 491.28 4.1331 13.788 0.030727 144.20 4.0661 51.198 0.019532 606.76 607.20 1.7825 3.5498 4.2924 1477.9 -0.014796 190.38 0.68287 0.049972 0.12191 8.2026 2553.7 2738.8 6.8900 1.7203 2.3444 491.31 4.1290 13.792 0.030742 144.30 4.0773 51.193 0.019534 607.19 607.63 1.7836 3.5493 4.2927 1477.7 -0.014787 190.23 0.68286 0.049951 0.12223 8.1813 2553.8 2738.9 6.8891 1.7208 2.3452 491.35 4.1250 13.795 0.030756 144.40 4.0886 51.188 0.019536 607.61 608.06 1.7846 3.5489 4.2929 1477.5 -0.014779 190.09 0.68285 0.049930 0.12255 8.1601 2553.9 2739.0 6.8881 1.7213 2.3461 491.38 4.1209 13.799 0.030771 144.50 4.0999 51.183 0.019538 608.04 608.49 1.7856 3.5484 4.2932 1477.3 -0.014771 189.95 0.68284 0.049909 0.12287 8.1389 2553.9 2739.2 6.8872 1.7218 2.3469 491.42 4.1169 13.802 0.030785 144.60 4.1113 51.178 0.019540 608.47 608.92 1.7866 3.5479 4.2934 1477.1 -0.014763 189.81 0.68283 0.049888 0.12319 8.1178 2554.0 2739.3 6.8863 1.7223 2.3477 491.45 4.1129 13.805 0.030800 144.70 4.1226 51.173 0.019541 608.90 609.35 1.7877 3.5475 4.2936 1476.9 -0.014755 189.67 0.68281 0.049867 0.12351 8.0968 2554.1 2739.4 6.8854 1.7228 2.3485 491.49 4.1089 13.809 0.030814 144.80 4.1340 51.168 0.019543 609.33 609.78 1.7887 3.5470 4.2939 1476.7 -0.014747 189.53 0.68280 0.049846 0.12383 8.0759 2554.2 2739.5 6.8845 1.7233 2.3494 491.52 4.1049 13.812 0.030829 144.90 4.1454 51.163 0.019545 609.76 610.21 1.7897 3.5466 4.2941 1476.5 -0.014739 189.39 0.68279 0.049824 0.12415 8.0550 2554.3 2739.7 6.8835 1.7238 2.3502 491.56 4.1009 13.816 0.030843 145.00 4.1568 51.158 0.019547 610.19 610.64 1.7907 3.5461 4.2944 1476.3 -0.014731 189.25 0.68278 0.049803 0.12447 8.0341 2554.4 2739.8 6.8826 1.7243 2.3510 491.59 4.0969 13.819 0.030858 145.10 4.1683 51.153 0.019549 610.62 611.07 1.7918 3.5456 4.2946 1476.1 -0.014723 189.10 0.68276 0.049782 0.12479 8.0134 2554.5 2739.9 6.8817 1.7248 2.3519 491.63 4.0929 13.823 0.030872 145.20 4.1798 51.148 0.019551 611.05 611.50 1.7928 3.5452 4.2949 1475.9 -0.014715 188.96 0.68275 0.049761 0.12511 7.9927 2554.6 2740.0 6.8808 1.7253 2.3527 491.66 4.0889 13.826 0.030887 145.30 4.1913 51.143 0.019553 611.47 611.93 1.7938 3.5447 4.2951 1475.7 -0.014707 188.82 0.68274 0.049740 0.12544 7.9720 2554.7 2740.2 6.8798 1.7258 2.3535 491.70 4.0849 13.830 0.030902 145.40 4.2028 51.138 0.019555 611.90 612.36 1.7949 3.5442 4.2954 1475.5 -0.014699 188.68 0.68273 0.049719 0.12576 7.9514 2554.8 2740.3 6.8789 1.7263 2.3543 491.73 4.0809 13.833 0.030916 145.50 4.2144 51.133 0.019557 612.33 612.79 1.7959 3.5438 4.2956 1475.3 -0.014691 188.54 0.68271 0.049697 0.12609 7.9309 2554.9 2740.4 6.8780 1.7268 2.3552 491.76 4.0769 13.837 0.030931 145.60 4.2260 51.128 0.019559 612.76 613.22 1.7969 3.5433 4.2959 1475.1 -0.014683 188.41 0.68270 0.049676 0.12641 7.9105 2555.0 2740.5 6.8771 1.7273 2.3560 491.80 4.0729 13.840 0.030945 145.70 4.2376 51.122 0.019561 613.19 613.65 1.7979 3.5429 4.2961 1474.9 -0.014675 188.27 0.68269 0.049655 0.12674 7.8901 2555.1 2740.7 6.8762 1.7278 2.3569 491.83 4.0690 13.843 0.030960 145.80 4.2492 51.117 0.019563 613.62 614.08 1.7989 3.5424 4.2964 1474.7 -0.014667 188.13 0.68267 0.049634 0.12707 7.8698 2555.2 2740.8 6.8752 1.7283 2.3577 491.87 4.0650 13.847 0.030975 145.90 4.2609 51.112 0.019565 614.05 614.51 1.8000 3.5419 4.2966 1474.5 -0.014659 187.99 0.68266 0.049613 0.12740 7.8495 2555.3 2740.9 6.8743 1.7288 2.3585 491.90 4.0610 13.850 0.030989 146.00 4.2726 51.107 0.019567 614.48 614.94 1.8010 3.5415 4.2968 1474.3 -0.014650 187.85 0.68265 0.049592 0.12773 7.8293 2555.4 2741.0 6.8734 1.7293 2.3594 491.93 4.0571 13.854 0.031004 146.10 4.2843 51.102 0.019569 614.91 615.37 1.8020 3.5410 4.2971 1474.1 -0.014642 187.71 0.68263 0.049570 0.12805 7.8092 2555.5 2741.2 6.8725 1.7298 2.3602 491.97 4.0531 13.857 0.031018 146.20 4.2960 51.097 0.019571 615.34 615.80 1.8030 3.5406 4.2973 1473.9 -0.014634 187.57 0.68262 0.049549 0.12838 7.7891 2555.5 2741.3 6.8716 1.7303 2.3611 492.00 4.0492 13.861 0.031033 146.30 4.3078 51.092 0.019573 615.76 616.23 1.8041 3.5401 4.2976 1473.6 -0.014626 187.43 0.68261 0.049528 0.12872 7.7691 2555.6 2741.4 6.8707 1.7308 2.3619 492.04 4.0453 13.864 0.031048 146.40 4.3196 51.087 0.019575 616.19 616.66 1.8051 3.5397 4.2978 1473.4 -0.014618 187.30 0.68259 0.049507 0.12905 7.7491 2555.7 2741.5 6.8697 1.7313 2.3627 492.07 4.0413 13.868 0.031062 146.50 4.3314 51.082 0.019576 616.62 617.09 1.8061 3.5392 4.2981 1473.2 -0.014610 187.16 0.68258 0.049486 0.12938 7.7292 2555.8 2741.7 6.8688 1.7318 2.3636 492.10 4.0374 13.871 0.031077 146.60 4.3432 51.077 0.019578 617.05 617.52 1.8071 3.5387 4.2983 1473.0 -0.014602 187.02 0.68256 0.049464 0.12971 7.7094 2555.9 2741.8 6.8679 1.7323 2.3644 492.14 4.0335 13.875 0.031092 146.70 4.3551 51.072 0.019580 617.48 617.95 1.8082 3.5383 4.2986 1472.8 -0.014593 186.88 0.68255 0.049443 0.13004 7.6896 2556.0 2741.9 6.8670 1.7328 2.3653 492.17 4.0296 13.878 0.031106 146.80 4.3670 51.066 0.019582 617.91 618.39 1.8092 3.5378 4.2988 1472.6 -0.014585 186.75 0.68254 0.049422 0.13038 7.6699 2556.1 2742.0 6.8661 1.7333 2.3661 492.21 4.0256 13.881 0.031121 146.90 4.3789 51.061 0.019584 618.34 618.82 1.8102 3.5374 4.2991 1472.4 -0.014577 186.61 0.68252 0.049401 0.13071 7.6503 2556.2 2742.2 6.8652 1.7338 2.3670 492.24 4.0217 13.885 0.031136 147.00 4.3909 51.056 0.019586 618.77 619.25 1.8112 3.5369 4.2994 1472.2 -0.014569 186.47 0.68251 0.049380 0.13105 7.6307 2556.3 2742.3 6.8643 1.7343 2.3678 492.27 4.0178 13.888 0.031151 147.10 4.4029 51.051 0.019588 619.20 619.68 1.8122 3.5364 4.2996 1472.0 -0.014561 186.34 0.68249 0.049358 0.13139 7.6112 2556.4 2742.4 6.8633 1.7348 2.3687 492.31 4.0139 13.892 0.031165 147.20 4.4149 51.046 0.019590 619.63 620.11 1.8133 3.5360 4.2999 1471.8 -0.014553 186.20 0.68248 0.049337 0.13172 7.5917 2556.5 2742.5 6.8624 1.7353 2.3695 492.34 4.0100 13.895 0.031180 147.30 4.4269 51.041 0.019592 620.06 620.54 1.8143 3.5355 4.3001 1471.6 -0.014544 186.06 0.68246 0.049316 0.13206 7.5723 2556.6 2742.6 6.8615 1.7358 2.3704 492.37 4.0061 13.899 0.031195 147.40 4.4389 51.036 0.019594 620.49 620.97 1.8153 3.5351 4.3004 1471.4 -0.014536 185.93 0.68245 0.049295 0.13240 7.5530 2556.7 2742.8 6.8606 1.7363 2.3712 492.41 4.0022 13.902 0.031209 147.50 4.4510 51.031 0.019596 620.92 621.40 1.8163 3.5346 4.3006 1471.1 -0.014528 185.79 0.68244 0.049273 0.13274 7.5337 2556.8 2742.9 6.8597 1.7368 2.3721 492.44 3.9984 13.906 0.031224 147.60 4.4631 51.025 0.019598 621.35 621.83 1.8174 3.5342 4.3009 1470.9 -0.014520 185.66 0.68242 0.049252 0.13308 7.5145 2556.9 2743.0 6.8588 1.7373 2.3730 492.47 3.9945 13.909 0.031239 147.70 4.4752 51.020 0.019600 621.78 622.26 1.8184 3.5337 4.3011 1470.7 -0.014511 185.52 0.68241 0.049231 0.13342 7.4953 2556.9 2743.1 6.8579 1.7378 2.3738 492.51 3.9906 13.913 0.031254 147.80 4.4874 51.015 0.019602 622.20 622.69 1.8194 3.5332 4.3014 1470.5 -0.014503 185.39 0.68239 0.049210 0.13376 7.4762 2557.0 2743.3 6.8570 1.7384 2.3747 492.54 3.9867 13.916 0.031268 147.90 4.4996 51.010 0.019604 622.63 623.12 1.8204 3.5328 4.3016 1470.3 -0.014495 185.25 0.68238 0.049188 0.13410 7.4571 2557.1 2743.4 6.8561 1.7389 2.3755 492.57 3.9829 13.919 0.031283 148.00 4.5118 51.005 0.019606 623.06 623.56 1.8214 3.5323 4.3019 1470.1 -0.014487 185.12 0.68236 0.049167 0.13444 7.4381 2557.2 2743.5 6.8552 1.7394 2.3764 492.61 3.9790 13.923 0.031298 148.10 4.5240 51.000 0.019608 623.49 623.99 1.8225 3.5319 4.3021 1469.9 -0.014478 184.98 0.68235 0.049146 0.13479 7.4192 2557.3 2743.6 6.8542 1.7399 2.3773 492.64 3.9752 13.926 0.031313 148.20 4.5363 50.995 0.019610 623.92 624.42 1.8235 3.5314 4.3024 1469.7 -0.014470 184.85 0.68233 0.049125 0.13513 7.4003 2557.4 2743.7 6.8533 1.7404 2.3781 492.67 3.9713 13.930 0.031328 148.30 4.5486 50.990 0.019612 624.35 624.85 1.8245 3.5310 4.3027 1469.5 -0.014462 184.71 0.68232 0.049103 0.13547 7.3815 2557.5 2743.9 6.8524 1.7409 2.3790 492.71 3.9675 13.933 0.031342 148.40 4.5609 50.984 0.019614 624.78 625.28 1.8255 3.5305 4.3029 1469.3 -0.014454 184.58 0.68230 0.049082 0.13582 7.3627 2557.6 2744.0 6.8515 1.7414 2.3799 492.74 3.9636 13.937 0.031357 148.50 4.5732 50.979 0.019616 625.21 625.71 1.8265 3.5301 4.3032 1469.0 -0.014445 184.45 0.68228 0.049061 0.13617 7.3440 2557.7 2744.1 6.8506 1.7419 2.3807 492.77 3.9598 13.940 0.031372 148.60 4.5856 50.974 0.019618 625.64 626.14 1.8276 3.5296 4.3034 1468.8 -0.014437 184.31 0.68227 0.049040 0.13651 7.3254 2557.8 2744.2 6.8497 1.7425 2.3816 492.81 3.9560 13.944 0.031387 148.70 4.5980 50.969 0.019620 626.07 626.57 1.8286 3.5291 4.3037 1468.6 -0.014429 184.18 0.68225 0.049018 0.13686 7.3068 2557.9 2744.4 6.8488 1.7430 2.3825 492.84 3.9521 13.947 0.031402 148.80 4.6104 50.964 0.019622 626.50 627.00 1.8296 3.5287 4.3039 1468.4 -0.014420 184.04 0.68224 0.048997 0.13721 7.2882 2558.0 2744.5 6.8479 1.7435 2.3833 492.87 3.9483 13.950 0.031417 148.90 4.6229 50.959 0.019624 626.93 627.43 1.8306 3.5282 4.3042 1468.2 -0.014412 183.91 0.68222 0.048976 0.13756 7.2698 2558.0 2744.6 6.8470 1.7440 2.3842 492.91 3.9445 13.954 0.031431 149.00 4.6354 50.953 0.019626 627.36 627.87 1.8316 3.5278 4.3045 1468.0 -0.014404 183.78 0.68221 0.048954 0.13791 7.2513 2558.1 2744.7 6.8461 1.7445 2.3851 492.94 3.9407 13.957 0.031446 149.10 4.6479 50.948 0.019628 627.79 628.30 1.8326 3.5273 4.3047 1467.8 -0.014396 183.65 0.68219 0.048933 0.13826 7.2330 2558.2 2744.8 6.8452 1.7450 2.3860 492.97 3.9369 13.961 0.031461 149.20 4.6604 50.943 0.019630 628.22 628.73 1.8337 3.5269 4.3050 1467.6 -0.014387 183.51 0.68217 0.048912 0.13861 7.2147 2558.3 2745.0 6.8443 1.7456 2.3868 493.00 3.9331 13.964 0.031476 149.30 4.6730 50.938 0.019632 628.65 629.16 1.8347 3.5264 4.3052 1467.3 -0.014379 183.38 0.68216 0.048891 0.13896 7.1964 2558.4 2745.1 6.8434 1.7461 2.3877 493.04 3.9293 13.968 0.031491 149.40 4.6856 50.933 0.019634 629.08 629.59 1.8357 3.5260 4.3055 1467.1 -0.014370 183.25 0.68214 0.048869 0.13931 7.1782 2558.5 2745.2 6.8425 1.7466 2.3886 493.07 3.9255 13.971 0.031506 149.50 4.6982 50.928 0.019636 629.51 630.02 1.8367 3.5255 4.3058 1466.9 -0.014362 183.12 0.68213 0.048848 0.13966 7.1601 2558.6 2745.3 6.8416 1.7471 2.3895 493.10 3.9217 13.975 0.031521 149.60 4.7108 50.922 0.019638 629.94 630.45 1.8377 3.5251 4.3060 1466.7 -0.014354 182.99 0.68211 0.048827 0.14002 7.1420 2558.7 2745.4 6.8407 1.7476 2.3904 493.13 3.9179 13.978 0.031536 149.70 4.7235 50.917 0.019640 630.37 630.89 1.8388 3.5246 4.3063 1466.5 -0.014345 182.85 0.68209 0.048805 0.14037 7.1239 2558.8 2745.6 6.8398 1.7481 2.3912 493.17 3.9141 13.982 0.031551 149.80 4.7362 50.912 0.019642 630.80 631.32 1.8398 3.5241 4.3066 1466.3 -0.014337 182.72 0.68208 0.048784 0.14073 7.1059 2558.9 2745.7 6.8389 1.7487 2.3921 493.20 3.9104 13.985 0.031566 149.90 4.7489 50.907 0.019644 631.23 631.75 1.8408 3.5237 4.3068 1466.1 -0.014329 182.59 0.68206 0.048763 0.14108 7.0880 2559.0 2745.8 6.8380 1.7492 2.3930 493.23 3.9066 13.988 0.031580 150.00 4.7616 50.902 0.019646 631.66 632.18 1.8418 3.5232 4.3071 1465.8 -0.014320 182.46 0.68204 0.048741 0.14144 7.0701 2559.1 2745.9 6.8371 1.7497 2.3939 493.26 3.9028 13.992 0.031595 150.10 4.7744 50.897 0.019648 632.09 632.61 1.8428 3.5228 4.3073 1465.6 -0.014312 182.33 0.68203 0.048720 0.14180 7.0523 2559.1 2746.0 6.8362 1.7502 2.3948 493.30 3.8991 13.995 0.031610 150.20 4.7872 50.891 0.019650 632.52 633.04 1.8438 3.5223 4.3076 1465.4 -0.014303 182.20 0.68201 0.048699 0.14216 7.0346 2559.2 2746.2 6.8353 1.7508 2.3957 493.33 3.8953 13.999 0.031625 150.30 4.8001 50.886 0.019652 632.95 633.47 1.8449 3.5219 4.3079 1465.2 -0.014295 182.07 0.68199 0.048677 0.14251 7.0168 2559.3 2746.3 6.8344 1.7513 2.3966 493.36 3.8915 14.002 0.031640 150.40 4.8129 50.881 0.019654 633.38 633.91 1.8459 3.5214 4.3081 1465.0 -0.014287 181.94 0.68197 0.048656 0.14287 6.9992 2559.4 2746.4 6.8335 1.7518 2.3974 493.39 3.8878 14.006 0.031655 150.50 4.8258 50.876 0.019656 633.81 634.34 1.8469 3.5210 4.3084 1464.8 -0.014278 181.81 0.68196 0.048635 0.14323 6.9816 2559.5 2746.5 6.8326 1.7523 2.3983 493.43 3.8841 14.009 0.031670 150.60 4.8387 50.871 0.019658 634.24 634.77 1.8479 3.5205 4.3087 1464.5 -0.014270 181.68 0.68194 0.048613 0.14360 6.9640 2559.6 2746.6 6.8317 1.7528 2.3992 493.46 3.8803 14.013 0.031685 150.70 4.8517 50.865 0.019660 634.67 635.20 1.8489 3.5201 4.3089 1464.3 -0.014261 181.55 0.68192 0.048592 0.14396 6.9465 2559.7 2746.8 6.8308 1.7534 2.4001 493.49 3.8766 14.016 0.031700 150.80 4.8646 50.860 0.019662 635.10 635.63 1.8499 3.5196 4.3092 1464.1 -0.014253 181.42 0.68191 0.048571 0.14432 6.9291 2559.8 2746.9 6.8299 1.7539 2.4010 493.52 3.8728 14.020 0.031715 150.90 4.8776 50.855 0.019664 635.53 636.06 1.8509 3.5192 4.3095 1463.9 -0.014244 181.29 0.68189 0.048549 0.14468 6.9117 2559.9 2747.0 6.8290 1.7544 2.4019 493.55 3.8691 14.023 0.031730 151.00 4.8907 50.850 0.019666 635.96 636.50 1.8520 3.5187 4.3097 1463.7 -0.014236 181.16 0.68187 0.048528 0.14505 6.8943 2560.0 2747.1 6.8281 1.7550 2.4028 493.59 3.8654 14.026 0.031745 151.10 4.9037 50.845 0.019668 636.39 636.93 1.8530 3.5183 4.3100 1463.5 -0.014227 181.03 0.68185 0.048506 0.14541 6.8771 2560.0 2747.2 6.8272 1.7555 2.4037 493.62 3.8617 14.030 0.031760 151.20 4.9168 50.839 0.019670 636.82 637.36 1.8540 3.5178 4.3103 1463.2 -0.014219 180.90 0.68184 0.048485 0.14578 6.8598 2560.1 2747.4 6.8263 1.7560 2.4046 493.65 3.8580 14.033 0.031775 151.30 4.9299 50.834 0.019672 637.25 637.79 1.8550 3.5174 4.3105 1463.0 -0.014210 180.77 0.68182 0.048464 0.14614 6.8426 2560.2 2747.5 6.8254 1.7565 2.4055 493.68 3.8543 14.037 0.031790 151.40 4.9430 50.829 0.019674 637.68 638.22 1.8560 3.5169 4.3108 1462.8 -0.014202 180.65 0.68180 0.048442 0.14651 6.8255 2560.3 2747.6 6.8245 1.7571 2.4064 493.71 3.8505 14.040 0.031805 151.50 4.9562 50.824 0.019676 638.11 638.65 1.8570 3.5165 4.3111 1462.6 -0.014193 180.52 0.68178 0.048421 0.14688 6.8084 2560.4 2747.7 6.8236 1.7576 2.4073 493.75 3.8468 14.044 0.031821 151.60 4.9694 50.818 0.019678 638.54 639.09 1.8580 3.5160 4.3113 1462.4 -0.014185 180.39 0.68176 0.048400 0.14725 6.7914 2560.5 2747.8 6.8227 1.7581 2.4082 493.78 3.8431 14.047 0.031836 151.70 4.9826 50.813 0.019680 638.97 639.52 1.8591 3.5156 4.3116 1462.2 -0.014176 180.26 0.68175 0.048378 0.14761 6.7744 2560.6 2748.0 6.8218 1.7587 2.4091 493.81 3.8395 14.051 0.031851 151.80 4.9959 50.808 0.019682 639.41 639.95 1.8601 3.5151 4.3119 1461.9 -0.014168 180.13 0.68173 0.048357 0.14798 6.7575 2560.7 2748.1 6.8209 1.7592 2.4100 493.84 3.8358 14.054 0.031866 151.90 5.0092 50.803 0.019684 639.84 640.38 1.8611 3.5147 4.3121 1461.7 -0.014159 180.01 0.68171 0.048335 0.14835 6.7406 2560.8 2748.2 6.8200 1.7597 2.4109 493.87 3.8321 14.057 0.031881 152.00 5.0225 50.798 0.019686 640.27 640.81 1.8621 3.5142 4.3124 1461.5 -0.014151 179.88 0.68169 0.048314 0.14873 6.7238 2560.9 2748.3 6.8192 1.7602 2.4118 493.90 3.8284 14.061 0.031896 152.10 5.0358 50.792 0.019688 640.70 641.25 1.8631 3.5138 4.3127 1461.3 -0.014142 179.75 0.68167 0.048293 0.14910 6.7070 2560.9 2748.4 6.8183 1.7608 2.4128 493.94 3.8247 14.064 0.031911 152.20 5.0492 50.787 0.019690 641.13 641.68 1.8641 3.5133 4.3130 1461.1 -0.014134 179.62 0.68165 0.048271 0.14947 6.6903 2561.0 2748.5 6.8174 1.7613 2.4137 493.97 3.8211 14.068 0.031926 152.30 5.0626 50.782 0.019692 641.56 642.11 1.8651 3.5129 4.3132 1460.8 -0.014125 179.50 0.68164 0.048250 0.14984 6.6736 2561.1 2748.7 6.8165 1.7618 2.4146 494.00 3.8174 14.071 0.031941 152.40 5.0760 50.777 0.019694 641.99 642.54 1.8661 3.5124 4.3135 1460.6 -0.014117 179.37 0.68162 0.048228 0.15022 6.6570 2561.2 2748.8 6.8156 1.7624 2.4155 494.03 3.8137 14.075 0.031957 152.50 5.0894 50.771 0.019696 642.42 642.98 1.8672 3.5120 4.3138 1460.4 -0.014108 179.25 0.68160 0.048207 0.15059 6.6404 2561.3 2748.9 6.8147 1.7629 2.4164 494.06 3.8101 14.078 0.031972 152.60 5.1029 50.766 0.019698 642.85 643.41 1.8682 3.5115 4.3141 1460.2 -0.014099 179.12 0.68158 0.048186 0.15097 6.6239 2561.4 2749.0 6.8138 1.7634 2.4173 494.09 3.8064 14.082 0.031987 152.70 5.1164 50.761 0.019700 643.28 643.84 1.8692 3.5111 4.3143 1460.0 -0.014091 178.99 0.68156 0.048164 0.15135 6.6074 2561.5 2749.1 6.8129 1.7640 2.4182 494.12 3.8028 14.085 0.032002 152.80 5.1299 50.756 0.019702 643.71 644.27 1.8702 3.5106 4.3146 1459.7 -0.014082 178.87 0.68154 0.048143 0.15172 6.5909 2561.6 2749.3 6.8120 1.7645 2.4191 494.16 3.7991 14.089 0.032017 152.90 5.1435 50.750 0.019704 644.14 644.70 1.8712 3.5102 4.3149 1459.5 -0.014074 178.74 0.68152 0.048121 0.15210 6.5746 2561.7 2749.4 6.8111 1.7651 2.4201 494.19 3.7955 14.092 0.032032 153.00 5.1571 50.745 0.019706 644.57 645.14 1.8722 3.5097 4.3151 1459.3 -0.014065 178.62 0.68150 0.048100 0.15248 6.5582 2561.7 2749.5 6.8103 1.7656 2.4210 494.22 3.7919 14.095 0.032048 153.10 5.1707 50.740 0.019708 645.00 645.57 1.8732 3.5093 4.3154 1459.1 -0.014056 178.49 0.68148 0.048078 0.15286 6.5419 2561.8 2749.6 6.8094 1.7661 2.4219 494.25 3.7882 14.099 0.032063 153.20 5.1844 50.735 0.019710 645.43 646.00 1.8742 3.5088 4.3157 1458.8 -0.014048 178.36 0.68146 0.048057 0.15324 6.5257 2561.9 2749.7 6.8085 1.7667 2.4228 494.28 3.7846 14.102 0.032078 153.30 5.1980 50.729 0.019712 645.87 646.43 1.8752 3.5084 4.3160 1458.6 -0.014039 178.24 0.68144 0.048036 0.15362 6.5095 2562.0 2749.8 6.8076 1.7672 2.4238 494.31 3.7810 14.106 0.032093 153.40 5.2117 50.724 0.019715 646.30 646.87 1.8763 3.5079 4.3162 1458.4 -0.014030 178.11 0.68143 0.048014 0.15400 6.4934 2562.1 2750.0 6.8067 1.7677 2.4247 494.34 3.7773 14.109 0.032108 153.50 5.2255 50.719 0.019717 646.73 647.30 1.8773 3.5075 4.3165 1458.2 -0.014022 177.99 0.68141 0.047993 0.15439 6.4773 2562.2 2750.1 6.8058 1.7683 2.4256 494.37 3.7737 14.113 0.032124 153.60 5.2392 50.713 0.019719 647.16 647.73 1.8783 3.5070 4.3168 1458.0 -0.014013 177.87 0.68139 0.047971 0.15477 6.4612 2562.3 2750.2 6.8049 1.7688 2.4265 494.40 3.7701 14.116 0.032139 153.70 5.2530 50.708 0.019721 647.59 648.16 1.8793 3.5066 4.3171 1457.7 -0.014005 177.74 0.68137 0.047950 0.15515 6.4453 2562.4 2750.3 6.8041 1.7694 2.4275 494.44 3.7665 14.120 0.032154 153.80 5.2669 50.703 0.019723 648.02 648.60 1.8803 3.5061 4.3174 1457.5 -0.013996 177.62 0.68135 0.047928 0.15554 6.4293 2562.5 2750.4 6.8032 1.7699 2.4284 494.47 3.7629 14.123 0.032169 153.90 5.2807 50.698 0.019725 648.45 649.03 1.8813 3.5057 4.3176 1457.3 -0.013987 177.49 0.68133 0.047907 0.15592 6.4134 2562.5 2750.5 6.8023 1.7705 2.4293 494.50 3.7593 14.126 0.032185 154.00 5.2946 50.692 0.019727 648.88 649.46 1.8823 3.5053 4.3179 1457.1 -0.013978 177.37 0.68131 0.047885 0.15631 6.3976 2562.6 2750.7 6.8014 1.7710 2.4302 494.53 3.7557 14.130 0.032200 154.10 5.3085 50.687 0.019729 649.31 649.89 1.8833 3.5048 4.3182 1456.8 -0.013970 177.25 0.68129 0.047864 0.15670 6.3817 2562.7 2750.8 6.8005 1.7715 2.4312 494.56 3.7521 14.133 0.032215 154.20 5.3224 50.682 0.019731 649.74 650.33 1.8843 3.5044 4.3185 1456.6 -0.013961 177.12 0.68127 0.047842 0.15708 6.3660 2562.8 2750.9 6.7996 1.7721 2.4321 494.59 3.7485 14.137 0.032230 154.30 5.3364 50.677 0.019733 650.18 650.76 1.8853 3.5039 4.3188 1456.4 -0.013952 177.00 0.68125 0.047821 0.15747 6.3503 2562.9 2751.0 6.7988 1.7726 2.4330 494.62 3.7450 14.140 0.032246 154.40 5.3504 50.671 0.019735 650.61 651.19 1.8864 3.5035 4.3190 1456.2 -0.013944 176.88 0.68123 0.047799 0.15786 6.3346 2563.0 2751.1 6.7979 1.7732 2.4340 494.65 3.7414 14.144 0.032261 154.50 5.3644 50.666 0.019737 651.04 651.63 1.8874 3.5030 4.3193 1455.9 -0.013935 176.75 0.68120 0.047778 0.15825 6.3190 2563.1 2751.2 6.7970 1.7737 2.4349 494.68 3.7378 14.147 0.032276 154.60 5.3785 50.661 0.019739 651.47 652.06 1.8884 3.5026 4.3196 1455.7 -0.013926 176.63 0.68118 0.047756 0.15864 6.3034 2563.2 2751.3 6.7961 1.7743 2.4359 494.71 3.7342 14.151 0.032292 154.70 5.3926 50.655 0.019741 651.90 652.49 1.8894 3.5021 4.3199 1455.5 -0.013917 176.51 0.68116 0.047735 0.15904 6.2879 2563.2 2751.5 6.7952 1.7748 2.4368 494.74 3.7307 14.154 0.032307 154.80 5.4067 50.650 0.019743 652.33 652.92 1.8904 3.5017 4.3202 1455.3 -0.013909 176.38 0.68114 0.047713 0.15943 6.2724 2563.3 2751.6 6.7944 1.7754 2.4377 494.77 3.7271 14.158 0.032322 154.90 5.4208 50.645 0.019745 652.76 653.36 1.8914 3.5012 4.3204 1455.0 -0.013900 176.26 0.68112 0.047692 0.15982 6.2570 2563.4 2751.7 6.7935 1.7759 2.4387 494.80 3.7236 14.161 0.032338 155.00 5.4350 50.639 0.019747 653.19 653.79 1.8924 3.5008 4.3207 1454.8 -0.013891 176.14 0.68110 0.047670 0.16022 6.2416 2563.5 2751.8 6.7926 1.7764 2.4396 494.83 3.7200 14.164 0.032353 155.10 5.4492 50.634 0.019750 653.63 654.22 1.8934 3.5004 4.3210 1454.6 -0.013882 176.02 0.68108 0.047649 0.16061 6.2262 2563.6 2751.9 6.7917 1.7770 2.4406 494.86 3.7165 14.168 0.032368 155.20 5.4634 50.629 0.019752 654.06 654.66 1.8944 3.4999 4.3213 1454.4 -0.013874 175.90 0.68106 0.047627 0.16101 6.2109 2563.7 2752.0 6.7908 1.7775 2.4415 494.89 3.7129 14.171 0.032384 155.30 5.4777 50.624 0.019754 654.49 655.09 1.8954 3.4995 4.3216 1454.1 -0.013865 175.77 0.68104 0.047606 0.16140 6.1957 2563.8 2752.2 6.7900 1.7781 2.4425 494.92 3.7094 14.175 0.032399 155.40 5.4920 50.618 0.019756 654.92 655.52 1.8964 3.4990 4.3219 1453.9 -0.013856 175.65 0.68102 0.047584 0.16180 6.1805 2563.9 2752.3 6.7891 1.7786 2.4434 494.95 3.7058 14.178 0.032414 155.50 5.5063 50.613 0.019758 655.35 655.95 1.8974 3.4986 4.3221 1453.7 -0.013847 175.53 0.68100 0.047563 0.16220 6.1653 2563.9 2752.4 6.7882 1.7792 2.4444 494.98 3.7023 14.182 0.032430 155.60 5.5207 50.608 0.019760 655.78 656.39 1.8984 3.4981 4.3224 1453.5 -0.013838 175.41 0.68097 0.047541 0.16260 6.1502 2564.0 2752.5 6.7873 1.7797 2.4453 495.01 3.6988 14.185 0.032445 155.70 5.5350 50.602 0.019762 656.21 656.82 1.8994 3.4977 4.3227 1453.2 -0.013830 175.29 0.68095 0.047520 0.16300 6.1351 2564.1 2752.6 6.7865 1.7803 2.4463 495.04 3.6952 14.189 0.032461 155.80 5.5495 50.597 0.019764 656.65 657.25 1.9005 3.4972 4.3230 1453.0 -0.013821 175.17 0.68093 0.047498 0.16340 6.1201 2564.2 2752.7 6.7856 1.7808 2.4472 495.07 3.6917 14.192 0.032476 155.90 5.5639 50.592 0.019766 657.08 657.69 1.9015 3.4968 4.3233 1452.8 -0.013812 175.05 0.68091 0.047477 0.16380 6.1051 2564.3 2752.8 6.7847 1.7814 2.4482 495.10 3.6882 14.195 0.032491 156.00 5.5784 50.586 0.019768 657.51 658.12 1.9025 3.4964 4.3236 1452.5 -0.013803 174.93 0.68089 0.047455 0.16420 6.0901 2564.4 2753.0 6.7838 1.7819 2.4491 495.13 3.6847 14.199 0.032507 156.10 5.5929 50.581 0.019770 657.94 658.55 1.9035 3.4959 4.3239 1452.3 -0.013794 174.81 0.68087 0.047434 0.16460 6.0752 2564.5 2753.1 6.7830 1.7825 2.4501 495.16 3.6812 14.202 0.032522 156.20 5.6074 50.576 0.019772 658.37 658.99 1.9045 3.4955 4.3241 1452.1 -0.013785 174.69 0.68085 0.047412 0.16501 6.0604 2564.6 2753.2 6.7821 1.7831 2.4510 495.19 3.6777 14.206 0.032538 156.30 5.6220 50.570 0.019774 658.80 659.42 1.9055 3.4950 4.3244 1451.9 -0.013776 174.57 0.68082 0.047391 0.16541 6.0456 2564.6 2753.3 6.7812 1.7836 2.4520 495.22 3.6742 14.209 0.032553 156.40 5.6366 50.565 0.019777 659.23 659.85 1.9065 3.4946 4.3247 1451.6 -0.013768 174.45 0.68080 0.047369 0.16582 6.0308 2564.7 2753.4 6.7803 1.7842 2.4529 495.25 3.6707 14.213 0.032569 156.50 5.6512 50.560 0.019779 659.67 660.29 1.9075 3.4941 4.3250 1451.4 -0.013759 174.33 0.68078 0.047347 0.16622 6.0161 2564.8 2753.5 6.7795 1.7847 2.4539 495.28 3.6672 14.216 0.032584 156.60 5.6658 50.554 0.019781 660.10 660.72 1.9085 3.4937 4.3253 1451.2 -0.013750 174.21 0.68076 0.047326 0.16663 6.0014 2564.9 2753.6 6.7786 1.7853 2.4549 495.31 3.6637 14.220 0.032600 156.70 5.6805 50.549 0.019783 660.53 661.15 1.9095 3.4933 4.3256 1450.9 -0.013741 174.09 0.68073 0.047304 0.16704 5.9867 2565.0 2753.8 6.7777 1.7858 2.4558 495.34 3.6602 14.223 0.032615 156.80 5.6952 50.544 0.019785 660.96 661.59 1.9105 3.4928 4.3259 1450.7 -0.013732 173.97 0.68071 0.047283 0.16744 5.9721 2565.1 2753.9 6.7768 1.7864 2.4568 495.37 3.6567 14.226 0.032631 156.90 5.7100 50.538 0.019787 661.39 662.02 1.9115 3.4924 4.3262 1450.5 -0.013723 173.85 0.68069 0.047261 0.16785 5.9576 2565.2 2754.0 6.7760 1.7869 2.4578 495.40 3.6533 14.230 0.032646 157.00 5.7247 50.533 0.019789 661.83 662.45 1.9125 3.4919 4.3265 1450.3 -0.013714 173.73 0.68067 0.047240 0.16826 5.9431 2565.2 2754.1 6.7751 1.7875 2.4587 495.43 3.6498 14.233 0.032662 157.10 5.7396 50.527 0.019791 662.26 662.89 1.9135 3.4915 4.3267 1450.0 -0.013705 173.61 0.68065 0.047218 0.16867 5.9286 2565.3 2754.2 6.7742 1.7881 2.4597 495.46 3.6463 14.237 0.032677 157.20 5.7544 50.522 0.019793 662.69 663.32 1.9145 3.4911 4.3270 1449.8 -0.013696 173.49 0.68062 0.047196 0.16909 5.9142 2565.4 2754.3 6.7734 1.7886 2.4607 495.49 3.6428 14.240 0.032693 157.30 5.7693 50.517 0.019795 663.12 663.75 1.9155 3.4906 4.3273 1449.6 -0.013687 173.38 0.68060 0.047175 0.16950 5.8998 2565.5 2754.4 6.7725 1.7892 2.4616 495.52 3.6394 14.244 0.032708 157.40 5.7841 50.511 0.019798 663.55 664.19 1.9165 3.4902 4.3276 1449.3 -0.013678 173.26 0.68058 0.047153 0.16991 5.8854 2565.6 2754.5 6.7716 1.7897 2.4626 495.55 3.6359 14.247 0.032724 157.50 5.7991 50.506 0.019800 663.98 664.62 1.9175 3.4897 4.3279 1449.1 -0.013669 173.14 0.68055 0.047132 0.17032 5.8711 2565.7 2754.7 6.7707 1.7903 2.4636 495.58 3.6325 14.251 0.032739 157.60 5.8140 50.501 0.019802 664.42 665.06 1.9185 3.4893 4.3282 1448.9 -0.013660 173.02 0.68053 0.047110 0.17074 5.8569 2565.8 2754.8 6.7699 1.7909 2.4645 495.61 3.6290 14.254 0.032755 157.70 5.8290 50.495 0.019804 664.85 665.49 1.9195 3.4889 4.3285 1448.6 -0.013651 172.90 0.68051 0.047088 0.17116 5.8427 2565.8 2754.9 6.7690 1.7914 2.4655 495.64 3.6256 14.258 0.032770 157.80 5.8440 50.490 0.019806 665.28 665.92 1.9205 3.4884 4.3288 1448.4 -0.013642 172.79 0.68049 0.047067 0.17157 5.8285 2565.9 2755.0 6.7681 1.7920 2.4665 495.66 3.6221 14.261 0.032786 157.90 5.8591 50.485 0.019808 665.71 666.36 1.9215 3.4880 4.3291 1448.2 -0.013633 172.67 0.68046 0.047045 0.17199 5.8143 2566.0 2755.1 6.7673 1.7925 2.4675 495.69 3.6187 14.264 0.032802 158.00 5.8742 50.479 0.019810 666.14 666.79 1.9225 3.4875 4.3294 1447.9 -0.013624 172.55 0.68044 0.047024 0.17241 5.8002 2566.1 2755.2 6.7664 1.7931 2.4685 495.72 3.6153 14.268 0.032817 158.10 5.8893 50.474 0.019812 666.58 667.22 1.9235 3.4871 4.3297 1447.7 -0.013615 172.43 0.68042 0.047002 0.17283 5.7862 2566.2 2755.3 6.7655 1.7937 2.4694 495.75 3.6118 14.271 0.032833 158.20 5.9044 50.468 0.019814 667.01 667.66 1.9246 3.4867 4.3300 1447.5 -0.013606 172.32 0.68039 0.046980 0.17324 5.7722 2566.3 2755.4 6.7647 1.7942 2.4704 495.78 3.6084 14.275 0.032848 158.30 5.9196 50.463 0.019816 667.44 668.09 1.9256 3.4862 4.3303 1447.2 -0.013597 172.20 0.68037 0.046959 0.17367 5.7582 2566.3 2755.6 6.7638 1.7948 2.4714 495.81 3.6050 14.278 0.032864 158.40 5.9348 50.458 0.019819 667.87 668.53 1.9266 3.4858 4.3306 1447.0 -0.013588 172.08 0.68034 0.046937 0.17409 5.7443 2566.4 2755.7 6.7629 1.7954 2.4724 495.84 3.6016 14.282 0.032880 158.50 5.9500 50.452 0.019821 668.31 668.96 1.9276 3.4853 4.3309 1446.8 -0.013579 171.97 0.68032 0.046916 0.17451 5.7304 2566.5 2755.8 6.7621 1.7959 2.4734 495.87 3.5981 14.285 0.032895 158.60 5.9653 50.447 0.019823 668.74 669.39 1.9286 3.4849 4.3312 1446.5 -0.013570 171.85 0.68030 0.046894 0.17493 5.7165 2566.6 2755.9 6.7612 1.7965 2.4743 495.90 3.5947 14.289 0.032911 158.70 5.9806 50.441 0.019825 669.17 669.83 1.9296 3.4845 4.3315 1446.3 -0.013561 171.74 0.68027 0.046872 0.17535 5.7027 2566.7 2756.0 6.7603 1.7970 2.4753 495.92 3.5913 14.292 0.032927 158.80 5.9959 50.436 0.019827 669.60 670.26 1.9306 3.4840 4.3317 1446.1 -0.013552 171.62 0.68025 0.046851 0.17578 5.6889 2566.8 2756.1 6.7595 1.7976 2.4763 495.95 3.5879 14.295 0.032942 158.90 6.0113 50.431 0.019829 670.03 670.70 1.9316 3.4836 4.3320 1445.8 -0.013543 171.50 0.68023 0.046829 0.17620 5.6752 2566.9 2756.2 6.7586 1.7982 2.4773 495.98 3.5845 14.299 0.032958 159.00 6.0267 50.425 0.019831 670.47 671.13 1.9326 3.4831 4.3323 1445.6 -0.013534 171.39 0.68020 0.046807 0.17663 5.6615 2566.9 2756.3 6.7578 1.7987 2.4783 496.01 3.5811 14.302 0.032974 159.10 6.0421 50.420 0.019833 670.90 671.56 1.9336 3.4827 4.3326 1445.4 -0.013525 171.27 0.68018 0.046786 0.17706 5.6479 2567.0 2756.4 6.7569 1.7993 2.4793 496.04 3.5777 14.306 0.032989 159.20 6.0576 50.414 0.019836 671.33 672.00 1.9346 3.4823 4.3329 1445.1 -0.013516 171.16 0.68015 0.046764 0.17749 5.6343 2567.1 2756.6 6.7560 1.7999 2.4803 496.07 3.5743 14.309 0.033005 159.30 6.0731 50.409 0.019838 671.76 672.43 1.9356 3.4818 4.3332 1444.9 -0.013507 171.04 0.68013 0.046742 0.17791 5.6207 2567.2 2756.7 6.7552 1.8005 2.4813 496.10 3.5710 14.313 0.033021 159.40 6.0886 50.404 0.019840 672.20 672.87 1.9366 3.4814 4.3335 1444.7 -0.013498 170.93 0.68010 0.046721 0.17834 5.6071 2567.3 2756.8 6.7543 1.8010 2.4823 496.12 3.5676 14.316 0.033036 159.50 6.1041 50.398 0.019842 672.63 673.30 1.9376 3.4810 4.3338 1444.4 -0.013488 170.81 0.68008 0.046699 0.17877 5.5937 2567.4 2756.9 6.7534 1.8016 2.4833 496.15 3.5642 14.320 0.033052 159.60 6.1197 50.393 0.019844 673.06 673.74 1.9386 3.4805 4.3341 1444.2 -0.013479 170.70 0.68005 0.046677 0.17921 5.5802 2567.4 2757.0 6.7526 1.8022 2.4843 496.18 3.5608 14.323 0.033068 159.70 6.1353 50.387 0.019846 673.49 674.17 1.9396 3.4801 4.3344 1444.0 -0.013470 170.58 0.68003 0.046656 0.17964 5.5668 2567.5 2757.1 6.7517 1.8027 2.4853 496.21 3.5575 14.326 0.033084 159.80 6.1510 50.382 0.019848 673.93 674.60 1.9406 3.4796 4.3347 1443.7 -0.013461 170.47 0.68001 0.046634 0.18007 5.5534 2567.6 2757.2 6.7509 1.8033 2.4863 496.24 3.5541 14.330 0.033099 159.90 6.1666 50.377 0.019851 674.36 675.04 1.9416 3.4792 4.3351 1443.5 -0.013452 170.35 0.67998 0.046612 0.18050 5.5401 2567.7 2757.3 6.7500 1.8039 2.4873 496.27 3.5507 14.333 0.033115 160.00 6.1823 50.371 0.019853 674.79 675.47 1.9426 3.4788 4.3354 1443.2 -0.013443 170.24 0.67996 0.046591 0.18094 5.5268 2567.8 2757.4 6.7491 1.8044 2.4883 496.29 3.5474 14.337 0.033131 160.10 6.1981 50.366 0.019855 675.22 675.91 1.9436 3.4783 4.3357 1443.0 -0.013433 170.13 0.67993 0.046569 0.18137 5.5135 2567.9 2757.6 6.7483 1.8050 2.4893 496.32 3.5440 14.340 0.033147 160.20 6.2139 50.360 0.019857 675.66 676.34 1.9446 3.4779 4.3360 1442.8 -0.013424 170.01 0.67991 0.046547 0.18181 5.5003 2567.9 2757.7 6.7474 1.8056 2.4903 496.35 3.5407 14.344 0.033162 160.30 6.2297 50.355 0.019859 676.09 676.78 1.9456 3.4775 4.3363 1442.5 -0.013415 169.90 0.67988 0.046526 0.18225 5.4871 2568.0 2757.8 6.7466 1.8062 2.4913 496.38 3.5373 14.347 0.033178 160.40 6.2455 50.349 0.019861 676.52 677.21 1.9466 3.4770 4.3366 1442.3 -0.013406 169.78 0.67986 0.046504 0.18268 5.4739 2568.1 2757.9 6.7457 1.8067 2.4923 496.41 3.5340 14.351 0.033194 160.50 6.2614 50.344 0.019863 676.96 677.65 1.9476 3.4766 4.3369 1442.1 -0.013397 169.67 0.67983 0.046482 0.18312 5.4608 2568.2 2758.0 6.7448 1.8073 2.4933 496.43 3.5306 14.354 0.033210 160.60 6.2773 50.339 0.019865 677.39 678.08 1.9486 3.4762 4.3372 1441.8 -0.013387 169.56 0.67980 0.046461 0.18356 5.4477 2568.3 2758.1 6.7440 1.8079 2.4943 496.46 3.5273 14.357 0.033225 160.70 6.2932 50.333 0.019868 677.82 678.52 1.9495 3.4757 4.3375 1441.6 -0.013378 169.44 0.67978 0.046439 0.18400 5.4347 2568.4 2758.2 6.7431 1.8085 2.4953 496.49 3.5240 14.361 0.033241 160.80 6.3092 50.328 0.019870 678.25 678.95 1.9505 3.4753 4.3378 1441.3 -0.013369 169.33 0.67975 0.046417 0.18444 5.4217 2568.4 2758.3 6.7423 1.8090 2.4963 496.52 3.5206 14.364 0.033257 160.90 6.3252 50.322 0.019872 678.69 679.38 1.9515 3.4749 4.3381 1441.1 -0.013360 169.22 0.67973 0.046395 0.18489 5.4087 2568.5 2758.4 6.7414 1.8096 2.4973 496.55 3.5173 14.368 0.033273 161.00 6.3412 50.317 0.019874 679.12 679.82 1.9525 3.4744 4.3384 1440.9 -0.013350 169.11 0.67970 0.046374 0.18533 5.3958 2568.6 2758.5 6.7406 1.8102 2.4983 496.57 3.5140 14.371 0.033289 161.10 6.3572 50.311 0.019876 679.55 680.25 1.9535 3.4740 4.3387 1440.6 -0.013341 168.99 0.67968 0.046352 0.18577 5.3829 2568.7 2758.6 6.7397 1.8108 2.4994 496.60 3.5107 14.375 0.033305 161.20 6.3733 50.306 0.019878 679.99 680.69 1.9545 3.4736 4.3390 1440.4 -0.013332 168.88 0.67965 0.046330 0.18622 5.3701 2568.8 2758.8 6.7388 1.8114 2.5004 496.63 3.5074 14.378 0.033321 161.30 6.3895 50.300 0.019881 680.42 681.12 1.9555 3.4731 4.3393 1440.2 -0.013323 168.77 0.67962 0.046309 0.18666 5.3573 2568.9 2758.9 6.7380 1.8119 2.5014 496.66 3.5041 14.382 0.033336 161.40 6.4056 50.295 0.019883 680.85 681.56 1.9565 3.4727 4.3396 1439.9 -0.013313 168.66 0.67960 0.046287 0.18711 5.3445 2568.9 2759.0 6.7371 1.8125 2.5024 496.68 3.5007 14.385 0.033352 161.50 6.4218 50.289 0.019885 681.28 681.99 1.9575 3.4722 4.3399 1439.7 -0.013304 168.55 0.67957 0.046265 0.18756 5.3318 2569.0 2759.1 6.7363 1.8131 2.5034 496.71 3.4974 14.389 0.033368 161.60 6.4380 50.284 0.019887 681.72 682.43 1.9585 3.4718 4.3403 1439.4 -0.013295 168.43 0.67955 0.046243 0.18800 5.3190 2569.1 2759.2 6.7354 1.8137 2.5044 496.74 3.4941 14.392 0.033384 161.70 6.4543 50.279 0.019889 682.15 682.86 1.9595 3.4714 4.3406 1439.2 -0.013285 168.32 0.67952 0.046222 0.18845 5.3064 2569.2 2759.3 6.7346 1.8143 2.5055 496.77 3.4909 14.395 0.033400 161.80 6.4706 50.273 0.019891 682.58 683.30 1.9605 3.4709 4.3409 1439.0 -0.013276 168.21 0.67949 0.046200 0.18890 5.2937 2569.3 2759.4 6.7337 1.8148 2.5065 496.79 3.4876 14.399 0.033416 161.90 6.4869 50.268 0.019894 683.02 683.73 1.9615 3.4705 4.3412 1438.7 -0.013267 168.10 0.67947 0.046178 0.18935 5.2812 2569.3 2759.5 6.7329 1.8154 2.5075 496.82 3.4843 14.402 0.033432 162.00 6.5033 50.262 0.019896 683.45 684.17 1.9625 3.4701 4.3415 1438.5 -0.013257 167.99 0.67944 0.046156 0.18980 5.2686 2569.4 2759.6 6.7320 1.8160 2.5085 496.85 3.4810 14.406 0.033448 162.10 6.5196 50.257 0.019898 683.88 684.60 1.9635 3.4696 4.3418 1438.2 -0.013248 167.88 0.67941 0.046135 0.19026 5.2561 2569.5 2759.7 6.7312 1.8166 2.5096 496.88 3.4777 14.409 0.033464 162.20 6.5361 50.251 0.019900 684.32 685.04 1.9645 3.4692 4.3421 1438.0 -0.013239 167.77 0.67939 0.046113 0.19071 5.2436 2569.6 2759.8 6.7303 1.8172 2.5106 496.90 3.4744 14.413 0.033479 162.30 6.5525 50.246 0.019902 684.75 685.47 1.9655 3.4688 4.3424 1437.7 -0.013229 167.66 0.67936 0.046091 0.19116 5.2311 2569.7 2759.9 6.7295 1.8177 2.5116 496.93 3.4712 14.416 0.033495 162.40 6.5690 50.240 0.019904 685.18 685.91 1.9665 3.4684 4.3427 1437.5 -0.013220 167.55 0.67933 0.046069 0.19162 5.2187 2569.8 2760.1 6.7286 1.8183 2.5126 496.96 3.4679 14.420 0.033511 162.50 6.5855 50.235 0.019907 685.62 686.34 1.9675 3.4679 4.3431 1437.3 -0.013211 167.43 0.67931 0.046048 0.19207 5.2063 2569.8 2760.2 6.7278 1.8189 2.5137 496.98 3.4646 14.423 0.033527 162.60 6.6021 50.229 0.019909 686.05 686.78 1.9685 3.4675 4.3434 1437.0 -0.013201 167.32 0.67928 0.046026 0.19253 5.1940 2569.9 2760.3 6.7269 1.8195 2.5147 497.01 3.4614 14.426 0.033543 162.70 6.6187 50.224 0.019911 686.48 687.22 1.9695 3.4671 4.3437 1436.8 -0.013192 167.21 0.67925 0.046004 0.19299 5.1817 2570.0 2760.4 6.7261 1.8201 2.5157 497.04 3.4581 14.430 0.033559 162.80 6.6353 50.218 0.019913 686.92 687.65 1.9705 3.4666 4.3440 1436.5 -0.013182 167.10 0.67922 0.045982 0.19345 5.1694 2570.1 2760.5 6.7252 1.8207 2.5168 497.07 3.4548 14.433 0.033575 162.90 6.6519 50.213 0.019915 687.35 688.09 1.9715 3.4662 4.3443 1436.3 -0.013173 166.99 0.67920 0.045961 0.19391 5.1571 2570.2 2760.6 6.7244 1.8213 2.5178 497.09 3.4516 14.437 0.033591 163.00 6.6686 50.207 0.019917 687.78 688.52 1.9725 3.4658 4.3446 1436.0 -0.013164 166.88 0.67917 0.045939 0.19437 5.1449 2570.2 2760.7 6.7235 1.8218 2.5189 497.12 3.4483 14.440 0.033607 163.10 6.6853 50.202 0.019920 688.22 688.96 1.9735 3.4653 4.3449 1435.8 -0.013154 166.78 0.67914 0.045917 0.19483 5.1328 2570.3 2760.8 6.7227 1.8224 2.5199 497.15 3.4451 14.444 0.033623 163.20 6.7021 50.196 0.019922 688.65 689.39 1.9744 3.4649 4.3453 1435.6 -0.013145 166.67 0.67911 0.045895 0.19529 5.1206 2570.4 2760.9 6.7218 1.8230 2.5209 497.17 3.4418 14.447 0.033639 163.30 6.7189 50.191 0.019924 689.08 689.83 1.9754 3.4645 4.3456 1435.3 -0.013135 166.56 0.67909 0.045873 0.19575 5.1085 2570.5 2761.0 6.7210 1.8236 2.5220 497.20 3.4386 14.451 0.033655 163.40 6.7357 50.185 0.019926 689.52 690.26 1.9764 3.4640 4.3459 1435.1 -0.013126 166.45 0.67906 0.045852 0.19621 5.0965 2570.6 2761.1 6.7201 1.8242 2.5230 497.23 3.4354 14.454 0.033671 163.50 6.7525 50.180 0.019928 689.95 690.70 1.9774 3.4636 4.3462 1434.8 -0.013116 166.34 0.67903 0.045830 0.19668 5.0844 2570.7 2761.2 6.7193 1.8248 2.5241 497.25 3.4321 14.457 0.033687 163.60 6.7694 50.174 0.019931 690.39 691.13 1.9784 3.4632 4.3465 1434.6 -0.013107 166.23 0.67900 0.045808 0.19714 5.0724 2570.7 2761.3 6.7184 1.8254 2.5251 497.28 3.4289 14.461 0.033703 163.70 6.7863 50.169 0.019933 690.82 691.57 1.9794 3.4627 4.3469 1434.3 -0.013097 166.12 0.67898 0.045786 0.19761 5.0604 2570.8 2761.4 6.7176 1.8260 2.5261 497.31 3.4257 14.464 0.033720 163.80 6.8033 50.163 0.019935 691.25 692.01 1.9804 3.4623 4.3472 1434.1 -0.013088 166.01 0.67895 0.045764 0.19808 5.0485 2570.9 2761.5 6.7167 1.8265 2.5272 497.33 3.4225 14.468 0.033736 163.90 6.8203 50.158 0.019937 691.69 692.44 1.9814 3.4619 4.3475 1433.9 -0.013078 165.90 0.67892 0.045743 0.19855 5.0366 2571.0 2761.7 6.7159 1.8271 2.5282 497.36 3.4193 14.471 0.033752 164.00 6.8373 50.152 0.019939 692.12 692.88 1.9824 3.4615 4.3478 1433.6 -0.013069 165.80 0.67889 0.045721 0.19901 5.0247 2571.1 2761.8 6.7150 1.8277 2.5293 497.39 3.4160 14.475 0.033768 164.10 6.8543 50.147 0.019942 692.55 693.31 1.9834 3.4610 4.3481 1433.4 -0.013059 165.69 0.67886 0.045699 0.19948 5.0129 2571.1 2761.9 6.7142 1.8283 2.5303 497.41 3.4128 14.478 0.033784 164.20 6.8714 50.141 0.019944 692.99 693.75 1.9844 3.4606 4.3485 1433.1 -0.013050 165.58 0.67883 0.045677 0.19996 5.0011 2571.2 2762.0 6.7134 1.8289 2.5314 497.44 3.4096 14.482 0.033800 164.30 6.8886 50.136 0.019946 693.42 694.18 1.9854 3.4602 4.3488 1432.9 -0.013040 165.47 0.67881 0.045655 0.20043 4.9893 2571.3 2762.1 6.7125 1.8295 2.5324 497.46 3.4064 14.485 0.033816 164.40 6.9057 50.130 0.019948 693.86 694.62 1.9864 3.4597 4.3491 1432.6 -0.013031 165.36 0.67878 0.045634 0.20090 4.9776 2571.4 2762.2 6.7117 1.8301 2.5335 497.49 3.4032 14.488 0.033832 164.50 6.9229 50.124 0.019950 694.29 695.06 1.9873 3.4593 4.3494 1432.4 -0.013021 165.26 0.67875 0.045612 0.20137 4.9659 2571.5 2762.3 6.7108 1.8307 2.5346 497.52 3.4000 14.492 0.033848 164.60 6.9401 50.119 0.019953 694.72 695.49 1.9883 3.4589 4.3497 1432.1 -0.013011 165.15 0.67872 0.045590 0.20185 4.9542 2571.5 2762.4 6.7100 1.8313 2.5356 497.54 3.3968 14.495 0.033864 164.70 6.9574 50.113 0.019955 695.16 695.93 1.9893 3.4585 4.3501 1431.9 -0.013002 165.04 0.67869 0.045568 0.20232 4.9426 2571.6 2762.5 6.7091 1.8319 2.5367 497.57 3.3936 14.499 0.033881 164.80 6.9747 50.108 0.019957 695.59 696.36 1.9903 3.4580 4.3504 1431.6 -0.012992 164.94 0.67866 0.045546 0.20280 4.9310 2571.7 2762.6 6.7083 1.8325 2.5377 497.60 3.3905 14.502 0.033897 164.90 6.9920 50.102 0.019959 696.03 696.80 1.9913 3.4576 4.3507 1431.4 -0.012983 164.83 0.67863 0.045524 0.20327 4.9194 2571.8 2762.7 6.7075 1.8331 2.5388 497.62 3.3873 14.506 0.033913 165.00 7.0093 50.097 0.019961 696.46 697.24 1.9923 3.4572 4.3510 1431.1 -0.012973 164.72 0.67861 0.045503 0.20375 4.9079 2571.9 2762.8 6.7066 1.8337 2.5398 497.65 3.3841 14.509 0.033929 165.10 7.0267 50.091 0.019964 696.89 697.67 1.9933 3.4567 4.3514 1430.9 -0.012963 164.61 0.67858 0.045481 0.20423 4.8964 2571.9 2762.9 6.7058 1.8343 2.5409 497.67 3.3809 14.513 0.033945 165.20 7.0442 50.086 0.019966 697.33 698.11 1.9943 3.4563 4.3517 1430.6 -0.012954 164.51 0.67855 0.045459 0.20471 4.8849 2572.0 2763.0 6.7049 1.8349 2.5420 497.70 3.3778 14.516 0.033961 165.30 7.0616 50.080 0.019968 697.76 698.54 1.9953 3.4559 4.3520 1430.4 -0.012944 164.40 0.67852 0.045437 0.20519 4.8735 2572.1 2763.1 6.7041 1.8355 2.5430 497.73 3.3746 14.519 0.033978 165.40 7.0791 50.075 0.019970 698.20 698.98 1.9963 3.4555 4.3523 1430.2 -0.012935 164.30 0.67849 0.045415 0.20567 4.8621 2572.2 2763.2 6.7032 1.8361 2.5441 497.75 3.3714 14.523 0.033994 165.50 7.0966 50.069 0.019972 698.63 699.42 1.9973 3.4550 4.3527 1429.9 -0.012925 164.19 0.67846 0.045393 0.20616 4.8507 2572.2 2763.3 6.7024 1.8367 2.5452 497.78 3.3683 14.526 0.034010 165.60 7.1142 50.063 0.019975 699.06 699.85 1.9982 3.4546 4.3530 1429.7 -0.012915 164.08 0.67843 0.045371 0.20664 4.8394 2572.3 2763.4 6.7016 1.8373 2.5462 497.80 3.3651 14.530 0.034026 165.70 7.1318 50.058 0.019977 699.50 700.29 1.9992 3.4542 4.3533 1429.4 -0.012906 163.98 0.67840 0.045350 0.20712 4.8281 2572.4 2763.5 6.7007 1.8379 2.5473 497.83 3.3620 14.533 0.034042 165.80 7.1494 50.052 0.019979 699.93 700.73 2.0002 3.4538 4.3536 1429.2 -0.012896 163.87 0.67837 0.045328 0.20761 4.8168 2572.5 2763.6 6.6999 1.8385 2.5484 497.85 3.3588 14.537 0.034059 165.90 7.1671 50.047 0.019981 700.37 701.16 2.0012 3.4533 4.3540 1428.9 -0.012886 163.77 0.67834 0.045306 0.20809 4.8055 2572.6 2763.7 6.6991 1.8391 2.5494 497.88 3.3557 14.540 0.034075 166.00 7.1848 50.041 0.019984 700.80 701.60 2.0022 3.4529 4.3543 1428.7 -0.012877 163.66 0.67831 0.045284 0.20858 4.7943 2572.6 2763.9 6.6982 1.8397 2.5505 497.91 3.3525 14.544 0.034091 166.10 7.2026 50.036 0.019986 701.24 702.04 2.0032 3.4525 4.3546 1428.4 -0.012867 163.56 0.67828 0.045262 0.20907 4.7831 2572.7 2764.0 6.6974 1.8403 2.5516 497.93 3.3494 14.547 0.034107 166.20 7.2203 50.030 0.019988 701.67 702.47 2.0042 3.4521 4.3550 1428.2 -0.012857 163.45 0.67825 0.045240 0.20956 4.7720 2572.8 2764.1 6.6965 1.8409 2.5527 497.96 3.3462 14.550 0.034124 166.30 7.2381 50.024 0.019990 702.11 702.91 2.0052 3.4516 4.3553 1427.9 -0.012847 163.34 0.67822 0.045218 0.21005 4.7609 2572.9 2764.2 6.6957 1.8415 2.5537 497.98 3.3431 14.554 0.034140 166.40 7.2560 50.019 0.019992 702.54 703.34 2.0062 3.4512 4.3556 1427.7 -0.012838 163.24 0.67819 0.045196 0.21054 4.7498 2573.0 2764.3 6.6949 1.8421 2.5548 498.01 3.3400 14.557 0.034156 166.50 7.2738 50.013 0.019995 702.97 703.78 2.0072 3.4508 4.3559 1427.4 -0.012828 163.14 0.67816 0.045174 0.21103 4.7387 2573.0 2764.4 6.6940 1.8427 2.5559 498.03 3.3368 14.561 0.034173 166.60 7.2918 50.008 0.019997 703.41 704.22 2.0081 3.4503 4.3563 1427.2 -0.012818 163.03 0.67813 0.045153 0.21152 4.7277 2573.1 2764.5 6.6932 1.8433 2.5570 498.06 3.3337 14.564 0.034189 166.70 7.3097 50.002 0.019999 703.84 704.65 2.0091 3.4499 4.3566 1426.9 -0.012808 162.93 0.67810 0.045131 0.21201 4.7167 2573.2 2764.6 6.6924 1.8439 2.5581 498.08 3.3306 14.568 0.034205 166.80 7.3277 49.996 0.020001 704.28 705.09 2.0101 3.4495 4.3569 1426.7 -0.012799 162.82 0.67807 0.045109 0.21251 4.7057 2573.3 2764.7 6.6915 1.8445 2.5592 498.11 3.3275 14.571 0.034221 166.90 7.3457 49.991 0.020004 704.71 705.53 2.0111 3.4491 4.3573 1426.4 -0.012789 162.72 0.67804 0.045087 0.21300 4.6948 2573.3 2764.8 6.6907 1.8451 2.5602 498.13 3.3244 14.575 0.034238 167.00 7.3638 49.985 0.020006 705.15 705.96 2.0121 3.4487 4.3576 1426.2 -0.012779 162.61 0.67801 0.045065 0.21350 4.6839 2573.4 2764.9 6.6898 1.8457 2.5613 498.16 3.3213 14.578 0.034254 167.10 7.3818 49.980 0.020008 705.58 706.40 2.0131 3.4482 4.3579 1425.9 -0.012769 162.51 0.67798 0.045043 0.21400 4.6730 2573.5 2765.0 6.6890 1.8463 2.5624 498.18 3.3181 14.581 0.034270 167.20 7.4000 49.974 0.020010 706.02 706.84 2.0141 3.4478 4.3583 1425.7 -0.012759 162.41 0.67795 0.045021 0.21449 4.6621 2573.6 2765.1 6.6882 1.8469 2.5635 498.21 3.3150 14.585 0.034287 167.30 7.4181 49.968 0.020013 706.45 707.28 2.0151 3.4474 4.3586 1425.4 -0.012750 162.30 0.67792 0.044999 0.21499 4.6513 2573.7 2765.2 6.6873 1.8475 2.5646 498.23 3.3119 14.588 0.034303 167.40 7.4363 49.963 0.020015 706.89 707.71 2.0160 3.4470 4.3589 1425.1 -0.012740 162.20 0.67788 0.044977 0.21549 4.6405 2573.7 2765.3 6.6865 1.8481 2.5657 498.26 3.3088 14.592 0.034320 167.50 7.4545 49.957 0.020017 707.32 708.15 2.0170 3.4465 4.3593 1424.9 -0.012730 162.09 0.67785 0.044955 0.21599 4.6298 2573.8 2765.4 6.6857 1.8487 2.5668 498.28 3.3058 14.595 0.034336 167.60 7.4728 49.952 0.020019 707.76 708.59 2.0180 3.4461 4.3596 1424.6 -0.012720 161.99 0.67782 0.044933 0.21650 4.6190 2573.9 2765.5 6.6848 1.8493 2.5679 498.31 3.3027 14.599 0.034352 167.70 7.4911 49.946 0.020022 708.19 709.02 2.0190 3.4457 4.3600 1424.4 -0.012710 161.89 0.67779 0.044911 0.21700 4.6083 2574.0 2765.6 6.6840 1.8499 2.5690 498.33 3.2996 14.602 0.034369 167.80 7.5094 49.940 0.020024 708.63 709.46 2.0200 3.4453 4.3603 1424.1 -0.012700 161.79 0.67776 0.044890 0.21750 4.5977 2574.0 2765.7 6.6832 1.8505 2.5700 498.36 3.2965 14.606 0.034385 167.90 7.5278 49.935 0.020026 709.06 709.90 2.0210 3.4448 4.3606 1423.9 -0.012691 161.68 0.67773 0.044868 0.21801 4.5870 2574.1 2765.8 6.6824 1.8511 2.5711 498.38 3.2934 14.609 0.034401 168.00 7.5462 49.929 0.020028 709.50 710.33 2.0220 3.4444 4.3610 1423.6 -0.012681 161.58 0.67770 0.044846 0.21851 4.5764 2574.2 2765.9 6.6815 1.8518 2.5722 498.41 3.2903 14.612 0.034418 168.10 7.5647 49.923 0.020031 709.93 710.77 2.0229 3.4440 4.3613 1423.4 -0.012671 161.48 0.67767 0.044824 0.21902 4.5659 2574.3 2766.0 6.6807 1.8524 2.5733 498.43 3.2873 14.616 0.034434 168.20 7.5831 49.918 0.020033 710.37 711.21 2.0239 3.4436 4.3616 1423.1 -0.012661 161.37 0.67763 0.044802 0.21952 4.5553 2574.4 2766.1 6.6799 1.8530 2.5744 498.46 3.2842 14.619 0.034451 168.30 7.6016 49.912 0.020035 710.80 711.65 2.0249 3.4431 4.3620 1422.9 -0.012651 161.27 0.67760 0.044780 0.22003 4.5448 2574.4 2766.2 6.6790 1.8536 2.5755 498.48 3.2811 14.623 0.034467 168.40 7.6202 49.907 0.020037 711.24 712.08 2.0259 3.4427 4.3623 1422.6 -0.012641 161.17 0.67757 0.044758 0.22054 4.5343 2574.5 2766.3 6.6782 1.8542 2.5766 498.51 3.2781 14.626 0.034484 168.50 7.6388 49.901 0.020040 711.67 712.52 2.0269 3.4423 4.3627 1422.4 -0.012631 161.07 0.67754 0.044736 0.22105 4.5238 2574.6 2766.4 6.6774 1.8548 2.5777 498.53 3.2750 14.630 0.034500 168.60 7.6574 49.895 0.020042 712.11 712.96 2.0279 3.4419 4.3630 1422.1 -0.012621 160.97 0.67751 0.044714 0.22156 4.5134 2574.7 2766.5 6.6765 1.8554 2.5788 498.55 3.2719 14.633 0.034517 168.70 7.6760 49.890 0.020044 712.54 713.39 2.0289 3.4415 4.3633 1421.8 -0.012611 160.86 0.67747 0.044692 0.22207 4.5030 2574.7 2766.6 6.6757 1.8560 2.5800 498.58 3.2689 14.637 0.034533 168.80 7.6947 49.884 0.020046 712.98 713.83 2.0298 3.4410 4.3637 1421.6 -0.012601 160.76 0.67744 0.044670 0.22259 4.4926 2574.8 2766.7 6.6749 1.8566 2.5811 498.60 3.2658 14.640 0.034550 168.90 7.7135 49.878 0.020049 713.41 714.27 2.0308 3.4406 4.3640 1421.3 -0.012591 160.66 0.67741 0.044648 0.22310 4.4823 2574.9 2766.8 6.6741 1.8573 2.5822 498.63 3.2628 14.643 0.034566 169.00 7.7322 49.873 0.020051 713.85 714.71 2.0318 3.4402 4.3644 1421.1 -0.012581 160.56 0.67738 0.044626 0.22362 4.4719 2575.0 2766.9 6.6732 1.8579 2.5833 498.65 3.2598 14.647 0.034583 169.10 7.7510 49.867 0.020053 714.28 715.14 2.0328 3.4398 4.3647 1420.8 -0.012571 160.46 0.67735 0.044604 0.22413 4.4617 2575.0 2767.0 6.6724 1.8585 2.5844 498.68 3.2567 14.650 0.034599 169.20 7.7699 49.861 0.020056 714.72 715.58 2.0338 3.4394 4.3651 1420.6 -0.012561 160.36 0.67731 0.044582 0.22465 4.4514 2575.1 2767.1 6.6716 1.8591 2.5855 498.70 3.2537 14.654 0.034616 169.30 7.7887 49.856 0.020058 715.15 716.02 2.0348 3.4389 4.3654 1420.3 -0.012551 160.26 0.67728 0.044560 0.22517 4.4412 2575.2 2767.2 6.6707 1.8597 2.5866 498.72 3.2506 14.657 0.034632 169.40 7.8077 49.850 0.020060 715.59 716.46 2.0358 3.4385 4.3657 1420.1 -0.012541 160.15 0.67725 0.044538 0.22568 4.4310 2575.3 2767.3 6.6699 1.8603 2.5877 498.75 3.2476 14.661 0.034649 169.50 7.8266 49.844 0.020062 716.02 716.90 2.0367 3.4381 4.3661 1419.8 -0.012531 160.05 0.67721 0.044516 0.22620 4.4208 2575.3 2767.4 6.6691 1.8609 2.5888 498.77 3.2446 14.664 0.034665 169.60 7.8456 49.839 0.020065 716.46 717.33 2.0377 3.4377 4.3664 1419.5 -0.012521 159.95 0.67718 0.044494 0.22672 4.4106 2575.4 2767.5 6.6683 1.8616 2.5900 498.80 3.2416 14.668 0.034682 169.70 7.8646 49.833 0.020067 716.89 717.77 2.0387 3.4373 4.3668 1419.3 -0.012511 159.85 0.67715 0.044472 0.22725 4.4005 2575.5 2767.6 6.6674 1.8622 2.5911 498.82 3.2385 14.671 0.034698 169.80 7.8837 49.827 0.020069 717.33 718.21 2.0397 3.4368 4.3671 1419.0 -0.012501 159.75 0.67712 0.044450 0.22777 4.3904 2575.6 2767.7 6.6666 1.8628 2.5922 498.84 3.2355 14.674 0.034715 169.90 7.9027 49.822 0.020072 717.77 718.65 2.0407 3.4364 4.3675 1418.8 -0.012491 159.65 0.67708 0.044428 0.22829 4.3804 2575.7 2767.8 6.6658 1.8634 2.5933 498.87 3.2325 14.678 0.034731 170.00 7.9219 49.816 0.020074 718.20 719.08 2.0417 3.4360 4.3678 1418.5 -0.012481 159.55 0.67705 0.044406 0.22882 4.3703 2575.7 2767.9 6.6650 1.8640 2.5944 498.89 3.2295 14.681 0.034748 170.10 7.9410 49.810 0.020076 718.64 719.52 2.0426 3.4356 4.3682 1418.3 -0.012471 159.45 0.67702 0.044384 0.22934 4.3603 2575.8 2768.0 6.6641 1.8647 2.5956 498.91 3.2265 14.685 0.034765 170.20 7.9602 49.805 0.020078 719.07 719.96 2.0436 3.4352 4.3685 1418.0 -0.012461 159.35 0.67698 0.044362 0.22987 4.3503 2575.9 2768.1 6.6633 1.8653 2.5967 498.94 3.2235 14.688 0.034781 170.30 7.9795 49.799 0.020081 719.51 720.40 2.0446 3.4347 4.3689 1417.7 -0.012451 159.25 0.67695 0.044340 0.23040 4.3404 2576.0 2768.2 6.6625 1.8659 2.5978 498.96 3.2205 14.692 0.034798 170.40 7.9987 49.793 0.020083 719.94 720.84 2.0456 3.4343 4.3692 1417.5 -0.012441 159.15 0.67692 0.044318 0.23092 4.3304 2576.0 2768.3 6.6617 1.8665 2.5989 498.99 3.2175 14.695 0.034814 170.50 8.0181 49.788 0.020085 720.38 721.27 2.0466 3.4339 4.3696 1417.2 -0.012430 159.05 0.67688 0.044296 0.23145 4.3205 2576.1 2768.4 6.6608 1.8671 2.6001 499.01 3.2145 14.699 0.034831 170.60 8.0374 49.782 0.020088 720.82 721.71 2.0476 3.4335 4.3699 1417.0 -0.012420 158.95 0.67685 0.044274 0.23198 4.3107 2576.2 2768.5 6.6600 1.8678 2.6012 499.03 3.2115 14.702 0.034848 170.70 8.0568 49.776 0.020090 721.25 722.15 2.0485 3.4331 4.3703 1416.7 -0.012410 158.85 0.67682 0.044252 0.23251 4.3008 2576.3 2768.6 6.6592 1.8684 2.6023 499.06 3.2085 14.705 0.034864 170.80 8.0762 49.771 0.020092 721.69 722.59 2.0495 3.4326 4.3706 1416.4 -0.012400 158.75 0.67678 0.044230 0.23305 4.2910 2576.3 2768.7 6.6584 1.8690 2.6035 499.08 3.2055 14.709 0.034881 170.90 8.0957 49.765 0.020094 722.12 723.03 2.0505 3.4322 4.3710 1416.2 -0.012390 158.66 0.67675 0.044208 0.23358 4.2812 2576.4 2768.8 6.6576 1.8696 2.6046 499.10 3.2025 14.712 0.034898 171.00 8.1152 49.759 0.020097 722.56 723.46 2.0515 3.4318 4.3713 1415.9 -0.012380 158.56 0.67671 0.044186 0.23411 4.2714 2576.5 2768.9 6.6567 1.8702 2.6057 499.13 3.1996 14.716 0.034914 171.10 8.1347 49.754 0.020099 722.99 723.90 2.0525 3.4314 4.3717 1415.7 -0.012370 158.46 0.67668 0.044164 0.23465 4.2617 2576.5 2769.0 6.6559 1.8709 2.6069 499.15 3.1966 14.719 0.034931 171.20 8.1543 49.748 0.020101 723.43 724.34 2.0534 3.4310 4.3720 1415.4 -0.012359 158.36 0.67665 0.044142 0.23518 4.2520 2576.6 2769.1 6.6551 1.8715 2.6080 499.17 3.1936 14.723 0.034948 171.30 8.1739 49.742 0.020104 723.87 724.78 2.0544 3.4306 4.3724 1415.1 -0.012349 158.26 0.67661 0.044120 0.23572 4.2423 2576.7 2769.2 6.6543 1.8721 2.6091 499.20 3.1906 14.726 0.034964 171.40 8.1935 49.736 0.020106 724.30 725.22 2.0554 3.4301 4.3727 1414.9 -0.012339 158.16 0.67658 0.044098 0.23626 4.2326 2576.8 2769.3 6.6534 1.8727 2.6103 499.22 3.1877 14.729 0.034981 171.50 8.2132 49.731 0.020108 724.74 725.66 2.0564 3.4297 4.3731 1414.6 -0.012329 158.06 0.67654 0.044076 0.23680 4.2230 2576.8 2769.4 6.6526 1.8734 2.6114 499.24 3.1847 14.733 0.034998 171.60 8.2329 49.725 0.020111 725.17 726.09 2.0574 3.4293 4.3734 1414.4 -0.012318 157.97 0.67651 0.044054 0.23734 4.2134 2576.9 2769.5 6.6518 1.8740 2.6126 499.27 3.1818 14.736 0.035014 171.70 8.2527 49.719 0.020113 725.61 726.53 2.0583 3.4289 4.3738 1414.1 -0.012308 157.87 0.67647 0.044032 0.23788 4.2038 2577.0 2769.6 6.6510 1.8746 2.6137 499.29 3.1788 14.740 0.035031 171.80 8.2725 49.714 0.020115 726.05 726.97 2.0593 3.4285 4.3741 1413.8 -0.012298 157.77 0.67644 0.044010 0.23842 4.1943 2577.1 2769.7 6.6502 1.8752 2.6148 499.31 3.1758 14.743 0.035048 171.90 8.2923 49.708 0.020118 726.48 727.41 2.0603 3.4281 4.3745 1413.6 -0.012288 157.67 0.67641 0.043987 0.23896 4.1847 2577.1 2769.8 6.6494 1.8759 2.6160 499.33 3.1729 14.747 0.035065 172.00 8.3122 49.702 0.020120 726.92 727.85 2.0613 3.4276 4.3749 1413.3 -0.012277 157.57 0.67637 0.043965 0.23951 4.1752 2577.2 2769.9 6.6485 1.8765 2.6171 499.36 3.1699 14.750 0.035081 172.10 8.3321 49.696 0.020122 727.36 728.29 2.0623 3.4272 4.3752 1413.1 -0.012267 157.48 0.67634 0.043943 0.24005 4.1657 2577.3 2770.0 6.6477 1.8771 2.6183 499.38 3.1670 14.754 0.035098 172.20 8.3520 49.691 0.020124 727.79 728.72 2.0632 3.4268 4.3756 1412.8 -0.012257 157.38 0.67630 0.043921 0.24060 4.1563 2577.4 2770.1 6.6469 1.8777 2.6194 499.40 3.1641 14.757 0.035115 172.30 8.3720 49.685 0.020127 728.23 729.16 2.0642 3.4264 4.3759 1412.5 -0.012247 157.28 0.67627 0.043899 0.24115 4.1469 2577.4 2770.1 6.6461 1.8784 2.6206 499.43 3.1611 14.760 0.035132 172.40 8.3920 49.679 0.020129 728.66 729.60 2.0652 3.4260 4.3763 1412.3 -0.012236 157.18 0.67623 0.043877 0.24169 4.1375 2577.5 2770.2 6.6453 1.8790 2.6217 499.45 3.1582 14.764 0.035148 172.50 8.4121 49.673 0.020131 729.10 730.04 2.0662 3.4256 4.3766 1412.0 -0.012226 157.09 0.67620 0.043855 0.24224 4.1281 2577.6 2770.3 6.6444 1.8796 2.6229 499.47 3.1553 14.767 0.035165 172.60 8.4322 49.668 0.020134 729.54 730.48 2.0672 3.4252 4.3770 1411.7 -0.012216 156.99 0.67616 0.043833 0.24279 4.1187 2577.7 2770.4 6.6436 1.8803 2.6240 499.49 3.1523 14.771 0.035182 172.70 8.4523 49.662 0.020136 729.97 730.92 2.0681 3.4247 4.3774 1411.5 -0.012205 156.89 0.67612 0.043811 0.24334 4.1094 2577.7 2770.5 6.6428 1.8809 2.6252 499.52 3.1494 14.774 0.035199 172.80 8.4725 49.656 0.020138 730.41 731.36 2.0691 3.4243 4.3777 1411.2 -0.012195 156.80 0.67609 0.043789 0.24390 4.1001 2577.8 2770.6 6.6420 1.8815 2.6263 499.54 3.1465 14.778 0.035216 172.90 8.4927 49.651 0.020141 730.85 731.80 2.0701 3.4239 4.3781 1411.0 -0.012185 156.70 0.67605 0.043767 0.24445 4.0908 2577.9 2770.7 6.6412 1.8821 2.6275 499.56 3.1436 14.781 0.035232 173.00 8.5130 49.645 0.020143 731.28 732.23 2.0711 3.4235 4.3784 1410.7 -0.012174 156.60 0.67602 0.043745 0.24500 4.0816 2577.9 2770.8 6.6404 1.8828 2.6287 499.58 3.1406 14.785 0.035249 173.10 8.5333 49.639 0.020145 731.72 732.67 2.0721 3.4231 4.3788 1410.4 -0.012164 156.51 0.67598 0.043722 0.24556 4.0724 2578.0 2770.9 6.6396 1.8834 2.6298 499.61 3.1377 14.788 0.035266 173.20 8.5536 49.633 0.020148 732.16 733.11 2.0730 3.4227 4.3792 1410.2 -0.012153 156.41 0.67595 0.043700 0.24611 4.0632 2578.1 2771.0 6.6387 1.8840 2.6310 499.63 3.1348 14.791 0.035283 173.30 8.5739 49.627 0.020150 732.59 733.55 2.0740 3.4223 4.3795 1409.9 -0.012143 156.31 0.67591 0.043678 0.24667 4.0540 2578.2 2771.1 6.6379 1.8847 2.6321 499.65 3.1319 14.795 0.035300 173.40 8.5943 49.622 0.020152 733.03 733.99 2.0750 3.4218 4.3799 1409.6 -0.012133 156.22 0.67588 0.043656 0.24723 4.0448 2578.2 2771.2 6.6371 1.8853 2.6333 499.67 3.1290 14.798 0.035317 173.50 8.6148 49.616 0.020155 733.47 734.43 2.0760 3.4214 4.3803 1409.4 -0.012122 156.12 0.67584 0.043634 0.24779 4.0357 2578.3 2771.3 6.6363 1.8859 2.6345 499.69 3.1261 14.802 0.035334 173.60 8.6353 49.610 0.020157 733.90 734.87 2.0770 3.4210 4.3806 1409.1 -0.012112 156.03 0.67580 0.043612 0.24835 4.0266 2578.4 2771.4 6.6355 1.8866 2.6356 499.72 3.1232 14.805 0.035350 173.70 8.6558 49.604 0.020159 734.34 735.31 2.0779 3.4206 4.3810 1408.8 -0.012101 155.93 0.67577 0.043590 0.24891 4.0175 2578.5 2771.5 6.6347 1.8872 2.6368 499.74 3.1203 14.809 0.035367 173.80 8.6763 49.599 0.020162 734.78 735.75 2.0789 3.4202 4.3814 1408.6 -0.012091 155.84 0.67573 0.043568 0.24947 4.0085 2578.5 2771.6 6.6339 1.8878 2.6380 499.76 3.1174 14.812 0.035384 173.90 8.6969 49.593 0.020164 735.21 736.19 2.0799 3.4198 4.3817 1408.3 -0.012080 155.74 0.67569 0.043546 0.25003 3.9995 2578.6 2771.7 6.6330 1.8885 2.6391 499.78 3.1145 14.816 0.035401 174.00 8.7176 49.587 0.020167 735.65 736.63 2.0809 3.4194 4.3821 1408.0 -0.012070 155.65 0.67566 0.043523 0.25060 3.9905 2578.7 2771.8 6.6322 1.8891 2.6403 499.81 3.1117 14.819 0.035418 174.10 8.7382 49.581 0.020169 736.09 737.07 2.0818 3.4189 4.3825 1407.8 -0.012059 155.55 0.67562 0.043501 0.25116 3.9815 2578.7 2771.9 6.6314 1.8897 2.6415 499.83 3.1088 14.822 0.035435 174.20 8.7589 49.576 0.020171 736.52 737.50 2.0828 3.4185 4.3828 1407.5 -0.012049 155.45 0.67558 0.043479 0.25173 3.9725 2578.8 2772.0 6.6306 1.8904 2.6427 499.85 3.1059 14.826 0.035452 174.30 8.7797 49.570 0.020174 736.96 737.94 2.0838 3.4181 4.3832 1407.2 -0.012038 155.36 0.67555 0.043457 0.25230 3.9636 2578.9 2772.1 6.6298 1.8910 2.6438 499.87 3.1030 14.829 0.035469 174.40 8.8005 49.564 0.020176 737.40 738.38 2.0848 3.4177 4.3836 1407.0 -0.012028 155.27 0.67551 0.043435 0.25286 3.9547 2579.0 2772.1 6.6290 1.8917 2.6450 499.89 3.1001 14.833 0.035486 174.50 8.8213 49.558 0.020178 737.83 738.82 2.0857 3.4173 4.3839 1406.7 -0.012017 155.17 0.67547 0.043413 0.25343 3.9458 2579.0 2772.2 6.6282 1.8923 2.6462 499.91 3.0973 14.836 0.035503 174.60 8.8422 49.552 0.020181 738.27 739.26 2.0867 3.4169 4.3843 1406.4 -0.012007 155.08 0.67544 0.043391 0.25400 3.9370 2579.1 2772.3 6.6274 1.8929 2.6474 499.94 3.0944 14.840 0.035520 174.70 8.8631 49.547 0.020183 738.71 739.70 2.0877 3.4165 4.3847 1406.2 -0.011996 154.98 0.67540 0.043368 0.25457 3.9281 2579.2 2772.4 6.6266 1.8936 2.6486 499.96 3.0915 14.843 0.035537 174.80 8.8840 49.541 0.020185 739.15 740.14 2.0887 3.4161 4.3850 1405.9 -0.011986 154.89 0.67536 0.043346 0.25515 3.9193 2579.2 2772.5 6.6257 1.8942 2.6497 499.98 3.0887 14.847 0.035554 174.90 8.9050 49.535 0.020188 739.58 740.58 2.0897 3.4157 4.3854 1405.6 -0.011975 154.79 0.67533 0.043324 0.25572 3.9105 2579.3 2772.6 6.6249 1.8948 2.6509 500.00 3.0858 14.850 0.035571 175.00 8.9260 49.529 0.020190 740.02 741.02 2.0906 3.4152 4.3858 1405.4 -0.011965 154.70 0.67529 0.043302 0.25629 3.9018 2579.4 2772.7 6.6241 1.8955 2.6521 500.02 3.0830 14.853 0.035588 